timestamp,acc-x,acc-y,acc-z,gyr-x,gyr-y,gyr-z,mag-x,mag-y,mag-z
1686918740,-0.5826523031,2.5818555854,9.6502535458,-1.4289665084547074,4.624708002087624,-0.5911648342661294,-51.19847997661503,12.408652440806781,-103.27389652148496
1686918740,-0.574277424,2.5842484079999997,9.6538427797,-0.0158824961931484,-0.0555887366760194,-0.005803219762881146,-50.920783396667645,12.657117801812333,-104.10698626132711
1686918740,-0.574277424,2.5842484079999997,9.6538427797,-0.0158824961931484,-0.0555887366760194,-0.005803219762881146,-51.19847997661503,12.67173341128325,-103.78544285296695
1686918740,-0.5754738353000001,2.5746771176,9.655039191,-0.012828170002158322,-0.04550946024575214,-0.004276056667386108,-51.1838643671441,12.496346097632271,-102.85004384682841
1686918740,-0.5754738353000001,2.5746771176,9.655039191,-0.012828170002158322,-0.04550946024575214,-0.004276056667386108,-51.40309850920784,12.58403975445776,-104.19467991815259
1686918740,-0.5706881900999999,2.5734807063,9.6634140701,-0.012980886311707827,-0.04673119072214818,-0.004428772976935611,-50.86232095878398,12.96404560070155,-102.98158433206666
1686918740,-0.5706881900999999,2.5734807063,9.6634140701,-0.012675453692608817,-0.04627304179349966,-0.004734205596034618,-50.9792458345513,12.496346097632271,-103.30312774042679
1686918740,-0.5635097223,2.5782663514999995,9.6574320136,-0.012675453692608817,-0.04627304179349966,-0.004734205596034618,-51.02309266296404,12.364805612394036,-103.17158725518854
1686918740,-0.5635097223,2.5782663514999995,9.6574320136,-0.012522737383059314,-0.047647488579445195,-0.004581489286485115,-50.9792458345513,12.014030985092077,-103.96083016661794
1686918740,-0.5766702466,2.5914268758000003,9.6526463684,-0.012522737383059314,-0.047647488579445195,-0.004581489286485115,-51.21309558608594,12.423268050277697,-103.27389652148496
1686918740,-0.5802594805,2.5830519966999996,9.6418786667,-0.012522737383059314,-0.047647488579445195,-0.005039638215133627,-51.12540192926045,12.07249342297574,-103.09850920783397
1686918740,-0.5802594805,2.5830519966999996,9.6418786667,-0.012522737383059314,-0.047647488579445195,-0.005039638215133627,-50.90616778719672,12.364805612394036,-103.49313066354865
1686918740,-0.5730810127,2.5890340532,9.6442714893,-0.012828170002158322,-0.04612032548395016,-0.004734205596034618,-51.40309850920784,12.277111955568547,-103.06927798889214
1686918740,-0.5730810127,2.5890340532,9.6442714893,-0.012828170002158322,-0.04612032548395016,-0.004734205596034618,-51.43232972814966,12.028646594562993,-103.0254311604794
1686918740,-0.5730810127,2.5878376418999998,9.6574320136,-0.012980886311707827,-0.047342055960346185,-0.004734205596034618,-51.476176556562415,12.130955860859398,-104.29698918444899
1686918740,-0.5730810127,2.5878376418999998,9.6574320136,-0.012980886311707827,-0.047342055960346185,-0.004734205596034618,-50.78924291142941,12.35019000292312,-103.75621163402514
1686918740,-0.5635097223,2.5794627628,9.661021247499999,-0.01313360262125733,-0.047036623341247176,-0.00519235452468313,-51.096170710318624,12.394036831335868,-104.16544869921076
1686918740,-0.5635097223,2.5794627628,9.661021247499999,-0.01313360262125733,-0.047036623341247176,-0.00519235452468313,-50.891552177725806,11.736334405144696,-104.35545162233267
1686918740,-0.5706881900999999,2.5746771176,9.6490571345,-0.012828170002158322,-0.046883907031697675,-0.004734205596034618,-51.30078924291143,12.233265127155803,-104.56007015492546
1686918740,-0.5706881900999999,2.5746771176,9.6490571345,-0.012828170002158322,-0.046883907031697675,-0.004734205596034618,-51.40309850920784,12.364805612394036,-103.68313358667056
1686918740,-0.5802594805,2.5782663514999995,9.6490571345,-0.012675453692608817,-0.04627304179349966,-0.004886921905584123,-51.46156094709149,12.262496346097631,-103.50774627301958
1686918740,-0.5802594805,2.5782663514999995,9.6490571345,-0.012675453692608817,-0.04627304179349966,-0.004886921905584123,-51.57848582285881,12.627886582870506,-103.24466530254313
1686918740,-0.5754738353000001,2.5806591741,9.6502535458,-0.012828170002158322,-0.047189339650796684,-0.004581489286485115,-51.34463607132418,12.130955860859398,-104.28237357497807
1686918740,-0.5754738353000001,2.5806591741,9.6502535458,-0.012828170002158322,-0.047189339650796684,-0.004581489286485115,-51.68079508915522,12.394036831335868,-104.28237357497807
1686918741,-0.5766702466,2.5842484079999997,9.655039191,-0.013286318930806833,-0.046883907031697675,-0.004734205596034618,-51.140017538731364,12.101724641917567,-103.39082139725227
1686918741,-0.5766702466,2.5842484079999997,9.655039191,-0.012675453692608817,-0.047494772269895694,-0.004886921905584123,-51.02309266296404,12.423268050277697,-104.0192926045016
1686918741,-0.574277424,2.5890340532,9.6562356023,-0.012675453692608817,-0.047494772269895694,-0.004886921905584123,-50.964630225080384,12.145571470330314,-103.63928675825782
1686918741,-0.5718846014,2.5878376418999998,9.6526463684,-0.012522737383059314,-0.047647488579445195,-0.004886921905584123,-51.33002046185325,12.306343174510378,-103.87313650979246
1686918741,-0.5718846014,2.5878376418999998,9.6526463684,-0.012522737383059314,-0.047647488579445195,-0.004886921905584123,-51.49079216603333,12.101724641917567,-102.98158433206666
1686918741,-0.5754738353000001,2.5842484079999997,9.6490571345,-0.012370021073509811,-0.047189339650796684,-0.005039638215133627,-51.15463314820228,12.58403975445776,-104.0192926045016
1686918741,-0.5754738353000001,2.5842484079999997,9.6490571345,-0.012370021073509811,-0.047189339650796684,-0.005039638215133627,-51.16924875767319,12.61327097339959,-103.69774919614147
1686918741,-0.5694917788,2.5830519966999996,9.6454679006,-0.012675453692608817,-0.04627304179349966,-0.005039638215133627,-50.9792458345513,12.920198772288805,-103.88775211926338
1686918741,-0.5694917788,2.5830519966999996,9.6454679006,-0.012675453692608817,-0.04627304179349966,-0.005039638215133627,-51.43232972814966,11.98479976615025,-103.15697164571762
1686918741,-0.5754738353000001,2.5842484079999997,9.6538427797,-0.012675453692608817,-0.04673119072214818,-0.005039638215133627,-51.05232388190587,12.335574393452207,-103.46389944460684
1686918741,-0.5754738353000001,2.5842484079999997,9.6538427797,-0.012675453692608817,-0.04673119072214818,-0.005039638215133627,-51.08155510084771,12.320958783981292,-103.58082432037416
1686918741,-0.574277424,2.5842484079999997,9.6502535458,-0.012675453692608817,-0.04657847441259867,-0.004886921905584123,-51.21309558608594,12.014030985092077,-103.80005846243789
1686918741,-0.574277424,2.5842484079999997,9.6502535458,-0.012675453692608817,-0.04657847441259867,-0.004886921905584123,-51.16924875767319,12.510961707103185,-103.3323589593686
1686918741,-0.5790630692000001,2.5842484079999997,9.6598248362,-0.012828170002158322,-0.04657847441259867,-0.004886921905584123,-50.818474130371236,12.540192926045016,-103.97544577608886
1686918741,-0.5790630692000001,2.5842484079999997,9.6598248362,-0.012828170002158322,-0.04657847441259867,-0.004886921905584123,-50.86232095878398,12.218649517684888,-103.68313358667056
1686918741,-0.5790630692000001,2.5842484079999997,9.6490571345,-0.012980886311707827,-0.04612032548395016,-0.005345070834232635,-50.716164864074834,12.320958783981292,-103.12774042677579
1686918741,-0.5790630692000001,2.5842484079999997,9.6490571345,-0.012828170002158322,-0.04612032548395016,-0.005039638215133627,-50.891552177725806,11.911721718795674,-103.434668225665
1686918741,-0.5766702466,2.5782663514999995,9.6478607232,-0.012828170002158322,-0.04612032548395016,-0.005039638215133627,-51.1838643671441,12.861736334405144,-103.55159310143233
1686918741,-0.5766702466,2.5770699402,9.646664311899999,-0.012828170002158322,-0.04612032548395016,-0.004886921905584123,-51.16924875767319,12.057877813504824,-103.21543408360128
1686918741,-0.5766702466,2.5770699402,9.646664311899999,-0.013286318930806833,-0.04642575810304917,-0.004581489286485115,-51.02309266296404,12.452499269219526,-103.99006138555977
1686918741,-0.574277424,2.5770699402,9.6502535458,-0.013286318930806833,-0.04642575810304917,-0.004581489286485115,-50.67231803566209,11.999415375621163,-103.55159310143233
1686918741,-0.5694917788,2.5854448193,9.655039191,-0.012828170002158322,-0.04581489286485115,-0.004428772976935611,-50.74539608301666,12.335574393452207,-104.25314235603625
1686918741,-0.5694917788,2.5854448193,9.655039191,-0.012522737383059314,-0.04596760917440065,-0.004734205596034618,-50.950014615609476,12.379421221864952,-103.7269804150833
1686918741,-0.5718846014,2.5866412306,9.6514499571,-0.012522737383059314,-0.04596760917440065,-0.004734205596034618,-51.12540192926045,12.84712072493423,-103.34697456883953
1686918741,-0.5730810127,2.5830519966999996,9.646664311899999,-0.012370021073509811,-0.04596760917440065,-0.004428772976935611,-51.1838643671441,12.58403975445776,-103.40543700672318
1686918741,-0.5730810127,2.5830519966999996,9.646664311899999,-0.012370021073509811,-0.04596760917440065,-0.004428772976935611,-50.9792458345513,12.540192926045016,-103.37620578778134
1686918741,-0.5826523031,2.5878376418999998,9.655039191,-0.012828170002158322,-0.04596760917440065,-0.005497787143782138,-50.9792458345513,12.744811458637825,-103.36159017831044
1686918741,-0.5826523031,2.5878376418999998,9.655039191,-0.012828170002158322,-0.04596760917440065,-0.005497787143782138,-50.70154925460392,12.35019000292312,-104.09237065185619
1686918741,-0.5814558918,2.5794627628,9.655039191,-0.012828170002158322,-0.047036623341247176,-0.00519235452468313,-51.24232680502777,12.233265127155803,-103.39082139725227
1686918741,-0.5814558918,2.5794627628,9.655039191,-0.012828170002158322,-0.047036623341247176,-0.00519235452468313,-51.22771119555686,12.204033908213972,-102.98158433206666
1686918741,-0.574277424,2.5890340532,9.643075077999999,-0.012980886311707827,-0.04673119072214818,-0.004581489286485115,-50.891552177725806,12.014030985092077,-102.90850628471206
1686918741,-0.574277424,2.5890340532,9.643075077999999,-0.012980886311707827,-0.04673119072214818,-0.004581489286485115,-50.891552177725806,12.554808535515932,-102.33849751534638
1686918741,-0.5730810127,2.5890340532,9.6562356023,-0.012675453692608817,-0.04581489286485115,-0.004123340357836604,-51.57848582285881,12.423268050277697,-103.17158725518854
1686918741,-0.5730810127,2.5890340532,9.6562356023,-0.012675453692608817,-0.047494772269895694,-0.005039638215133627,-51.446945337620576,12.510961707103185,-102.58696287635193
1686918741,-0.5670989562,2.5806591741,9.6514499571,-0.012675453692608817,-0.047494772269895694,-0.005039638215133627,-51.60771704180064,11.955568547208419,-102.55773165741012
1686918741,-0.5766702466,2.5842484079999997,9.661021247499999,-0.012675453692608817,-0.04642575810304917,-0.004886921905584123,-51.05232388190587,12.277111955568547,-103.49313066354865
1686918741,-0.5766702466,2.5842484079999997,9.661021247499999,-0.012675453692608817,-0.04642575810304917,-0.004886921905584123,-51.520023384975154,12.408652440806781,-103.39082139725227
1686918741,-0.5706881900999999,2.5782663514999995,9.655039191,-0.012675453692608817,-0.04612032548395016,-0.00519235452468313,-51.35925168079509,12.320958783981292,-103.82928968137972
1686918741,-0.5706881900999999,2.5782663514999995,9.655039191,-0.012675453692608817,-0.04612032548395016,-0.00519235452468313,-51.096170710318624,11.677871967261035,-104.13621748026894
1686918741,-0.5766702466,2.5794627628,9.6502535458,-0.012980886311707827,-0.04596760917440065,-0.004734205596034618,-51.30078924291143,12.204033908213972,-103.47851505407775
1686918741,-0.5766702466,2.5794627628,9.6502535458,-0.012980886311707827,-0.04596760917440065,-0.004734205596034618,-51.1838643671441,12.379421221864952,-103.37620578778134
1686918741,-0.5778666579,2.5854448193,9.6574320136,-0.013286318930806833,-0.0436768645311581,-0.004581489286485115,-51.2715580239696,12.320958783981292,-103.40543700672318
1686918741,-0.5778666579,2.5854448193,9.6574320136,-0.013286318930806833,-0.0436768645311581,-0.004581489286485115,-51.73925752703887,11.765565624086523,-103.6246711487869
1686918741,-0.5802594805,2.5806591741,9.6622176588,-0.012980886311707827,-0.04581489286485115,-0.004428772976935611,-51.140017538731364,12.233265127155803,-103.3323589593686
1686918741,-0.5802594805,2.5806591741,9.6622176588,-0.012980886311707827,-0.04581489286485115,-0.004428772976935611,-51.76848874598071,12.510961707103185,-103.46389944460684
1686918741,-0.5766702466,2.5890340532,9.6526463684,-0.012522737383059314,-0.04627304179349966,-0.004276056667386108,-51.28617363344051,12.715580239695996,-102.99619994153757
1686918741,-0.5766702466,2.5890340532,9.6526463684,-0.012522737383059314,-0.04627304179349966,-0.004276056667386108,-51.31540485238234,12.861736334405144,-102.89389067524115
1686918741,-0.5670989562,2.5902304645,9.6502535458,-0.012370021073509811,-0.04627304179349966,-0.004428772976935611,-51.35925168079509,13.183279742765272,-103.39082139725227
1686918741,-0.5670989562,2.5902304645,9.6502535458,-0.012370021073509811,-0.04627304179349966,-0.004428772976935611,-50.9792458345513,12.496346097632271,-103.99006138555977
1686918741,-0.5694917788,2.5866412306,9.6562356023,-0.01313360262125733,-0.0478002048889947,-0.00519235452468313,-50.84770534931307,12.8178895059924,-103.20081847413036
1686918741,-0.5694917788,2.5866412306,9.6562356023,-0.01313360262125733,-0.0478002048889947,-0.00519235452468313,-51.417714118678745,12.452499269219526,-103.53697749196142
1686918741,-0.5778666579,2.5878376418999998,9.655039191,-0.013286318930806833,-0.047647488579445195,-0.005345070834232635,-51.446945337620576,12.320958783981292,-103.55159310143233
1686918741,-0.5778666579,2.5878376418999998,9.655039191,-0.013286318930806833,-0.04612032548395016,-0.005650503453331642,-51.417714118678745,12.598655363928676,-103.9169833382052
1686918741,-0.5826523031,2.5782663514999995,9.6538427797,-0.01313360262125733,-0.04612032548395016,-0.005650503453331642,-51.476176556562415,12.540192926045016,-103.75621163402514
1686918741,-0.5826523031,2.5782663514999995,9.6538427797,-0.01313360262125733,-0.04657847441259867,-0.004428772976935611,-51.476176556562415,12.61327097339959,-103.21543408360128
1686918741,-0.5802594805,2.5770699402,9.6622176588,-0.01313360262125733,-0.04657847441259867,-0.004428772976935611,-51.43232972814966,12.130955860859398,-103.28851213095587
1686918741,-0.5802594805,2.5758735289,9.6502535458,-0.012828170002158322,-0.046883907031697675,-0.004428772976935611,-50.950014615609476,12.627886582870506,-103.05466237942123
1686918741,-0.5718846014,2.5758735289,9.6502535458,-0.012828170002158322,-0.046883907031697675,-0.004428772976935611,-51.417714118678745,12.510961707103185,-102.67465653317744
1686918741,-0.5682953675,2.5818555854,9.6562356023,-0.01313360262125733,-0.047189339650796684,-0.004428772976935611,-51.870798012277106,12.58403975445776,-103.50774627301958
1686918741,-0.5682953675,2.5818555854,9.6562356023,-0.01313360262125733,-0.047189339650796684,-0.004428772976935611,-51.19847997661503,12.174802689272141,-102.86465945629932
1686918741,-0.5790630692000001,2.5842484079999997,9.6598248362,-0.012675453692608817,-0.047647488579445195,-0.004123340357836604,-50.93539900613856,12.525577316574102,-103.37620578778134
1686918741,-0.5790630692000001,2.5842484079999997,9.6598248362,-0.012675453692608817,-0.047647488579445195,-0.004123340357836604,-50.87693656825489,12.087109032446651,-103.34697456883953
1686918741,-0.5766702466,2.5878376418999998,9.6514499571,-0.012522737383059314,-0.04657847441259867,-0.004886921905584123,-51.40309850920784,12.335574393452207,-102.76235019000293
1686918741,-0.5766702466,2.5878376418999998,9.6514499571,-0.012522737383059314,-0.04657847441259867,-0.004886921905584123,-50.65770242619118,12.320958783981292,-102.89389067524115
1686918741,-0.574277424,2.5914268758000003,9.661021247499999,-0.01313360262125733,-0.046883907031697675,-0.005345070834232635,-51.16924875767319,12.61327097339959,-103.3177433498977
1686918741,-0.574277424,2.5914268758000003,9.661021247499999,-0.01313360262125733,-0.046883907031697675,-0.005345070834232635,-51.25694241449869,12.423268050277697,-102.7331189710611
1686918741,-0.5814558918,2.5902304645,9.6502535458,-0.012828170002158322,-0.04581489286485115,-0.004428772976935611,-51.11078631978954,12.759427068108739,-102.79158140894475
1686918741,-0.5814558918,2.5902304645,9.6502535458,-0.012828170002158322,-0.04581489286485115,-0.004428772976935611,-51.15463314820228,12.145571470330314,-102.60157848582286
1686918741,-0.5802594805,2.5794627628,9.6574320136,-0.012828170002158322,-0.04810563750809371,-0.00519235452468313,-51.140017538731364,12.803273896521485,-102.67465653317744
1686918741,-0.5802594805,2.5794627628,9.6574320136,-0.012828170002158322,-0.04810563750809371,-0.00519235452468313,-51.096170710318624,12.554808535515932,-103.08389359836305
1686918741,-0.5670989562,2.5818555854,9.6526463684,-0.012675453692608817,-0.04596760917440065,-0.004734205596034618,-51.35925168079509,12.540192926045016,-102.5431160479392
1686918741,-0.5670989562,2.5818555854,9.6526463684,-0.012675453692608817,-0.04596760917440065,-0.004886921905584123,-51.33002046185325,12.700964630225082,-102.33849751534638
1686918741,-0.5682953675,2.5758735289,9.6681997153,-0.01313360262125733,-0.04627304179349966,-0.004886921905584123,-51.25694241449869,12.90558316281789,-103.50774627301958
1686918741,-0.5682953675,2.5758735289,9.6681997153,-0.012522737383059314,-0.04627304179349966,-0.0039706240482871,-51.28617363344051,12.686349020754164,-103.37620578778134
1686918741,-0.5647061336,2.5830519966999996,9.6646104814,-0.012522737383059314,-0.04627304179349966,-0.0039706240482871,-51.72464191756796,12.364805612394036,-103.49313066354865
1686918741,-0.5647061336,2.5830519966999996,9.6646104814,-0.012522737383059314,-0.04673119072214818,-0.004734205596034618,-51.15463314820228,12.598655363928676,-103.39082139725227
1686918741,-0.5754738353000001,2.5854448193,9.6442714893,-0.012522737383059314,-0.04673119072214818,-0.004734205596034618,-51.11078631978954,12.700964630225082,-103.93159894767612
1686918741,-0.5778666579,2.5818555854,9.6598248362,-0.012522737383059314,-0.047342055960346185,-0.004734205596034618,-51.43232972814966,12.525577316574102,-104.10698626132711
1686918741,-0.5778666579,2.5818555854,9.6598248362,-0.012522737383059314,-0.047342055960346185,-0.004734205596034618,-51.12540192926045,12.218649517684888,-103.56620871090325
1686918741,-0.5898307709,2.5854448193,9.655039191,-0.012370021073509811,-0.048258353817643214,-0.004581489286485115,-50.93539900613856,12.247880736626717,-104.03390821397251
1686918741,-0.5898307709,2.5854448193,9.655039191,-0.012370021073509811,-0.048258353817643214,-0.004581489286485115,-51.373867290266006,12.291727565039462,-103.47851505407775
1686918741,-0.574277424,2.5926232871,9.6586284249,-0.012370021073509811,-0.046883907031697675,-0.004428772976935611,-51.11078631978954,12.8178895059924,-103.610055539316
1686918741,-0.574277424,2.5926232871,9.6586284249,-0.012370021073509811,-0.046883907031697675,-0.004428772976935611,-50.891552177725806,12.43788365974861,-103.36159017831044
1686918741,-0.5730810127,2.5866412306,9.6586284249,-0.012828170002158322,-0.047494772269895694,-0.005039638215133627,-51.30078924291143,12.730195849166911,-104.09237065185619
1686918741,-0.5730810127,2.5866412306,9.6586284249,-0.012828170002158322,-0.047494772269895694,-0.005039638215133627,-51.08155510084771,12.525577316574102,-103.74159602455421
1686918741,-0.5682953675,2.5866412306,9.6514499571,-0.012370021073509811,-0.04581489286485115,-0.004123340357836604,-51.11078631978954,12.540192926045016,-103.28851213095587
1686918741,-0.5682953675,2.5866412306,9.6514499571,-0.012370021073509811,-0.04581489286485115,-0.004123340357836604,-51.21309558608594,12.335574393452207,-103.06927798889214
1686918741,-0.5718846014,2.5902304645,9.6586284249,-0.012522737383059314,-0.0478002048889947,-0.004886921905584123,-50.993861444022215,12.408652440806781,-103.610055539316
1686918741,-0.5718846014,2.5902304645,9.6586284249,-0.012522737383059314,-0.0478002048889947,-0.004886921905584123,-51.476176556562415,12.43788365974861,-103.82928968137972
1686918741,-0.586241537,2.5818555854,9.655039191,-0.01313360262125733,-0.04459316238845512,-0.004123340357836604,-51.31540485238234,12.58403975445776,-103.50774627301958
1686918741,-0.586241537,2.5818555854,9.655039191,-0.01313360262125733,-0.04459316238845512,-0.004123340357836604,-50.9792458345513,12.642502192341421,-103.68313358667056
1686918741,-0.5766702466,2.5854448193,9.6586284249,-0.012980886311707827,-0.04673119072214818,-0.004734205596034618,-51.40309850920784,12.627886582870506,-103.21543408360128
1686918742,-0.5766702466,2.5854448193,9.6586284249,-0.012980886311707827,-0.04673119072214818,-0.004734205596034618,-50.613855597778425,12.43788365974861,-103.58082432037416
1686918742,-0.5850451257,2.5854448193,9.6598248362,-0.012980886311707827,-0.047189339650796684,-0.005039638215133627,-50.55539315989477,12.452499269219526,-103.14235603624671
1686918742,-0.5850451257,2.5854448193,9.6598248362,-0.012980886311707827,-0.047189339650796684,-0.005345070834232635,-50.73078047354574,12.540192926045016,-103.50774627301958
1686918742,-0.5802594805,2.5794627628,9.6562356023,-0.01313360262125733,-0.047342055960346185,-0.005345070834232635,-51.24232680502777,12.569424144986845,-102.92312189418298
1686918742,-0.5778666579,2.5806591741,9.6586284249,-0.01313360262125733,-0.047036623341247176,-0.004734205596034618,-50.993861444022215,12.262496346097631,-103.34697456883953
1686918742,-0.5778666579,2.5806591741,9.6586284249,-0.01313360262125733,-0.047036623341247176,-0.004734205596034618,-51.00847705349313,12.8178895059924,-103.90236772873429
1686918742,-0.5706881900999999,2.5854448193,9.6514499571,-0.012675453692608817,-0.04627304179349966,-0.004581489286485115,-50.93539900613856,12.394036831335868,-104.00467699503069
1686918742,-0.5706881900999999,2.5854448193,9.6514499571,-0.012675453692608817,-0.04627304179349966,-0.004581489286485115,-51.33002046185325,12.408652440806781,-103.36159017831044
1686918742,-0.5706881900999999,2.5782663514999995,9.661021247499999,-0.012675453692608817,-0.04657847441259867,-0.004428772976935611,-50.80385852090033,12.832505115463313,-103.610055539316
1686918742,-0.5706881900999999,2.5782663514999995,9.661021247499999,-0.012675453692608817,-0.04657847441259867,-0.004428772976935611,-50.52616194095294,12.510961707103185,-103.30312774042679
1686918742,-0.5718846014,2.5806591741,9.6574320136,-0.012675453692608817,-0.04612032548395016,-0.004581489286485115,-50.818474130371236,12.364805612394036,-103.74159602455421
1686918742,-0.5718846014,2.5806591741,9.6574320136,-0.012675453692608817,-0.04612032548395016,-0.004581489286485115,-51.05232388190587,12.189418298743057,-103.27389652148496
1686918742,-0.5778666579,2.5854448193,9.6574320136,-0.012828170002158322,-0.04627304179349966,-0.004428772976935611,-50.67231803566209,12.043262204033908,-103.69774919614147
1686918742,-0.5778666579,2.5854448193,9.6574320136,-0.012828170002158322,-0.04627304179349966,-0.004428772976935611,-50.73078047354574,12.408652440806781,-103.68313358667056
1686918742,-0.5706881900999999,2.5854448193,9.661021247499999,-0.012675453692608817,-0.047036623341247176,-0.004581489286485115,-51.24232680502777,12.306343174510378,-103.610055539316
1686918742,-0.5706881900999999,2.5854448193,9.661021247499999,-0.012675453692608817,-0.047036623341247176,-0.004581489286485115,-51.417714118678745,12.496346097632271,-103.58082432037416
1686918742,-0.5754738353000001,2.5854448193,9.6693961266,-0.012522737383059314,-0.047342055960346185,-0.004734205596034618,-51.57848582285881,12.452499269219526,-103.93159894767612
1686918742,-0.5754738353000001,2.5854448193,9.6693961266,-0.012522737383059314,-0.047342055960346185,-0.004734205596034618,-51.00847705349313,12.481730488161356,-103.15697164571762
1686918742,-0.5659025448999999,2.5842484079999997,9.6646104814,-0.01313360262125733,-0.04627304179349966,-0.004734205596034618,-51.25694241449869,12.262496346097631,-104.29698918444899
1686918742,-0.5659025448999999,2.5842484079999997,9.6646104814,-0.01313360262125733,-0.04627304179349966,-0.004734205596034618,-51.34463607132418,12.335574393452207,-103.75621163402514
1686918742,-0.5694917788,2.5914268758000003,9.6622176588,-0.013439035240356337,-0.046883907031697675,-0.004581489286485115,-51.16924875767319,12.233265127155803,-103.15697164571762
1686918742,-0.5694917788,2.5914268758000003,9.6622176588,-0.013439035240356337,-0.046883907031697675,-0.004581489286485115,-50.93539900613856,11.98479976615025,-103.65390236772873
1686918742,-0.5694917788,2.5794627628,9.6562356023,-0.012828170002158322,-0.047036623341247176,-0.004428772976935611,-51.037708272434955,12.028646594562993,-103.77082724349604
1686918742,-0.5694917788,2.5794627628,9.6562356023,-0.012828170002158322,-0.046883907031697675,-0.00519235452468313,-50.51154633148202,12.467114878690442,-103.77082724349604
1686918742,-0.5647061336,2.5866412306,9.6622176588,-0.012828170002158322,-0.046883907031697675,-0.00519235452468313,-50.570008769365685,12.423268050277697,-103.15697164571762
1686918742,-0.5647061336,2.5866412306,9.6622176588,-0.012980886311707827,-0.0478002048889947,-0.005039638215133627,-50.65770242619118,12.569424144986845,-103.37620578778134
1686918742,-0.5790630692000001,2.5806591741,9.661021247499999,-0.012980886311707827,-0.0478002048889947,-0.005039638215133627,-50.76001169248757,12.247880736626717,-103.23004969307219
1686918742,-0.5790630692000001,2.5842484079999997,9.6574320136,-0.012675453692608817,-0.046883907031697675,-0.005345070834232635,-50.84770534931307,12.861736334405144,-103.7123648056124
1686918742,-0.5778666579,2.5842484079999997,9.6574320136,-0.012675453692608817,-0.046883907031697675,-0.005345070834232635,-50.76001169248757,12.277111955568547,-102.80619701841567
1686918742,-0.5694917788,2.5866412306,9.661021247499999,-0.012980886311707827,-0.047342055960346185,-0.005039638215133627,-51.037708272434955,11.955568547208419,-103.21543408360128
1686918742,-0.5694917788,2.5866412306,9.661021247499999,-0.012980886311707827,-0.047342055960346185,-0.005039638215133627,-50.84770534931307,12.832505115463313,-103.56620871090325
1686918742,-0.5718846014,2.5938196984,9.6562356023,-0.012522737383059314,-0.04596760917440065,-0.004581489286485115,-51.19847997661503,12.291727565039462,-102.85004384682841
1686918742,-0.5718846014,2.5938196984,9.6562356023,-0.012522737383059314,-0.04596760917440065,-0.004581489286485115,-50.93539900613856,12.993276819643379,-103.53697749196142
1686918742,-0.5659025448999999,2.5890340532,9.665806892700001,-0.012675453692608817,-0.04627304179349966,-0.004734205596034618,-50.964630225080384,12.452499269219526,-104.06313943291434
1686918742,-0.5659025448999999,2.5890340532,9.665806892700001,-0.012675453692608817,-0.04627304179349966,-0.004734205596034618,-51.16924875767319,12.510961707103185,-103.55159310143233
1686918742,-0.574277424,2.5818555854,9.6562356023,-0.01313360262125733,-0.04612032548395016,-0.004734205596034618,-51.476176556562415,12.218649517684888,-103.84390529085064
1686918742,-0.574277424,2.5818555854,9.6562356023,-0.01313360262125733,-0.04612032548395016,-0.004734205596034618,-51.12540192926045,12.379421221864952,-104.82315112540192
1686918742,-0.5718846014,2.5806591741,9.6586284249,-0.01313360262125733,-0.04520402762665313,-0.004734205596034618,-50.993861444022215,12.700964630225082,-103.58082432037416
1686918742,-0.5718846014,2.5806591741,9.6586284249,-0.01313360262125733,-0.04520402762665313,-0.004734205596034618,-51.21309558608594,12.730195849166911,-103.74159602455421
1686918742,-0.5766702466,2.5770699402,9.6514499571,-0.012675453692608817,-0.04550946024575214,-0.005650503453331642,-51.21309558608594,13.02250803858521,-103.20081847413036
1686918742,-0.5766702466,2.5770699402,9.6514499571,-0.012675453692608817,-0.04550946024575214,-0.005650503453331642,-51.549254603916985,12.774042677579656,-104.53083893598362
1686918742,-0.574277424,2.5818555854,9.6562356023,-0.012980886311707827,-0.046883907031697675,-0.004581489286485115,-50.891552177725806,12.35019000292312,-104.29698918444899
1686918742,-0.574277424,2.5818555854,9.6562356023,-0.012828170002158322,-0.04612032548395016,-0.0039706240482871,-51.00847705349313,12.481730488161356,-104.06313943291434
1686918742,-0.5790630692000001,2.5878376418999998,9.655039191,-0.012828170002158322,-0.04612032548395016,-0.0039706240482871,-50.84770534931307,12.394036831335868,-103.53697749196142
1686918742,-0.5790630692000001,2.5878376418999998,9.655039191,-0.012828170002158322,-0.047189339650796684,-0.004886921905584123,-50.950014615609476,12.204033908213972,-103.6246711487869
1686918742,-0.5850451257,2.5830519966999996,9.6454679006,-0.012828170002158322,-0.047189339650796684,-0.004886921905584123,-50.950014615609476,12.364805612394036,-103.01081555100848
1686918742,-0.5850451257,2.5830519966999996,9.6514499571,-0.012828170002158322,-0.047647488579445195,-0.004276056667386108,-50.64308681672026,12.525577316574102,-104.00467699503069
1686918742,-0.5706881900999999,2.5902304645,9.6514499571,-0.012828170002158322,-0.047647488579445195,-0.004276056667386108,-51.33002046185325,12.686349020754164,-102.74773458053201
1686918742,-0.5670989562,2.5878376418999998,9.6538427797,-0.012675453692608817,-0.04657847441259867,-0.00519235452468313,-50.9792458345513,12.978661210172465,-102.95235311312483
1686918742,-0.5670989562,2.5878376418999998,9.6538427797,-0.012675453692608817,-0.04657847441259867,-0.00519235452468313,-50.920783396667645,12.554808535515932,-104.34083601286173
1686918742,-0.5706881900999999,2.5818555854,9.6574320136,-0.012828170002158322,-0.047036623341247176,-0.005345070834232635,-51.02309266296404,11.882490499853844,-103.78544285296695
1686918742,-0.5706881900999999,2.5818555854,9.6574320136,-0.012828170002158322,-0.047036623341247176,-0.005345070834232635,-50.67231803566209,12.642502192341421,-104.07775504238528
1686918742,-0.5814558918,2.5758735289,9.6514499571,-0.012828170002158322,-0.04673119072214818,-0.004734205596034618,-50.686933645133,12.423268050277697,-103.47851505407775
1686918742,-0.5814558918,2.5758735289,9.6514499571,-0.012828170002158322,-0.04673119072214818,-0.004734205596034618,-50.964630225080384,12.978661210172465,-103.78544285296695
1686918742,-0.5754738353000001,2.5806591741,9.6514499571,-0.012828170002158322,-0.04612032548395016,-0.005039638215133627,-50.83308973984215,12.598655363928676,-103.58082432037416
1686918742,-0.5754738353000001,2.5806591741,9.6514499571,-0.012828170002158322,-0.04612032548395016,-0.005039638215133627,-50.70154925460392,12.744811458637825,-103.7123648056124
1686918742,-0.5754738353000001,2.5842484079999997,9.6478607232,-0.01313360262125733,-0.04612032548395016,-0.004886921905584123,-50.84770534931307,12.335574393452207,-103.24466530254313
1686918742,-0.5754738353000001,2.5842484079999997,9.6478607232,-0.01313360262125733,-0.04612032548395016,-0.004886921905584123,-50.993861444022215,12.861736334405144,-103.97544577608886
1686918742,-0.5754738353000001,2.5878376418999998,9.646664311899999,-0.012980886311707827,-0.04627304179349966,-0.004428772976935611,-50.964630225080384,12.58403975445776,-104.07775504238528
1686918742,-0.5754738353000001,2.5878376418999998,9.646664311899999,-0.012980886311707827,-0.04627304179349966,-0.004428772976935611,-51.140017538731364,13.02250803858521,-103.49313066354865
1686918742,-0.5754738353000001,2.5878376418999998,9.6502535458,-0.012828170002158322,-0.047036623341247176,-0.004581489286485115,-51.22771119555686,13.007892429114293,-103.94621455714703
1686918742,-0.5754738353000001,2.5878376418999998,9.6502535458,-0.012828170002158322,-0.047036623341247176,-0.004581489286485115,-51.38848289973692,12.598655363928676,-103.47851505407775
1686918742,-0.5682953675,2.5854448193,9.6502535458,-0.012980886311707827,-0.04642575810304917,-0.004886921905584123,-50.993861444022215,13.037123648056124,-103.30312774042679
1686918742,-0.5682953675,2.5854448193,9.6502535458,-0.012980886311707827,-0.04642575810304917,-0.004886921905584123,-50.993861444022215,12.90558316281789,-103.50774627301958
1686918742,-0.5730810127,2.5830519966999996,9.6454679006,-0.013591751549905842,-0.04596760917440065,-0.005650503453331642,-50.9792458345513,12.247880736626717,-103.84390529085064
1686918742,-0.5730810127,2.5830519966999996,9.6454679006,-0.013591751549905842,-0.047036623341247176,-0.005039638215133627,-50.52616194095294,12.262496346097631,-103.47851505407775
1686918742,-0.5802594805,2.5830519966999996,9.6478607232,-0.013286318930806833,-0.047036623341247176,-0.005039638215133627,-51.22771119555686,12.204033908213972,-103.49313066354865
1686918742,-0.5802594805,2.5830519966999996,9.6478607232,-0.012828170002158322,-0.04657847441259867,-0.004276056667386108,-50.76001169248757,12.569424144986845,-103.18620286465945
1686918742,-0.5778666579,2.5830519966999996,9.6502535458,-0.012828170002158322,-0.04657847441259867,-0.004276056667386108,-50.891552177725806,12.569424144986845,-103.25928091201403
1686918742,-0.5778666579,2.5830519966999996,9.6502535458,-0.012980886311707827,-0.047189339650796684,-0.004581489286485115,-50.74539608301666,13.066354866997953,-103.69774919614147
1686918742,-0.5766702466,2.5842484079999997,9.6490571345,-0.012980886311707827,-0.047189339650796684,-0.004581489286485115,-50.818474130371236,12.598655363928676,-103.27389652148496
1686918742,-0.5766702466,2.5890340532,9.6478607232,-0.012828170002158322,-0.047647488579445195,-0.004734205596034618,-51.08155510084771,12.394036831335868,-103.14235603624671
1686918742,-0.5706881900999999,2.5890340532,9.6478607232,-0.012828170002158322,-0.047647488579445195,-0.004734205596034618,-51.63694826074248,13.02250803858521,-103.42005261619408
1686918742,-0.5694917788,2.5842484079999997,9.6526463684,-0.012675453692608817,-0.04657847441259867,-0.004428772976935611,-51.31540485238234,12.949429991230636,-102.87927506577023
1686918742,-0.5694917788,2.5842484079999997,9.6526463684,-0.012675453692608817,-0.04657847441259867,-0.004428772976935611,-51.16924875767319,12.61327097339959,-103.6246711487869
1686918742,-0.5754738353000001,2.5854448193,9.6574320136,-0.012675453692608817,-0.045662176555301644,-0.004734205596034618,-51.12540192926045,12.90558316281789,-103.6246711487869
1686918742,-0.5754738353000001,2.5854448193,9.6574320136,-0.012675453692608817,-0.045662176555301644,-0.004734205596034618,-51.140017538731364,13.007892429114293,-103.59543992984509
1686918742,-0.5730810127,2.5830519966999996,9.6490571345,-0.012980886311707827,-0.04627304179349966,-0.004886921905584123,-51.05232388190587,12.861736334405144,-103.27389652148496
1686918742,-0.5730810127,2.5830519966999996,9.6490571345,-0.012980886311707827,-0.04627304179349966,-0.004886921905584123,-51.096170710318624,12.978661210172465,-103.82928968137972
1686918742,-0.5766702466,2.5854448193,9.6514499571,-0.012980886311707827,-0.04627304179349966,-0.005039638215133627,-50.950014615609476,13.02250803858521,-103.93159894767612
1686918742,-0.5766702466,2.5854448193,9.6514499571,-0.012980886311707827,-0.04627304179349966,-0.005039638215133627,-51.21309558608594,12.715580239695996,-103.7123648056124
1686918742,-0.5766702466,2.5806591741,9.6538427797,-0.013286318930806833,-0.047036623341247176,-0.004734205596034618,-51.35925168079509,13.066354866997953,-103.99006138555977
1686918742,-0.5766702466,2.5806591741,9.6538427797,-0.013286318930806833,-0.047036623341247176,-0.004734205596034618,-50.64308681672026,12.715580239695996,-103.23004969307219
1686918742,-0.5730810127,2.5770699402,9.6562356023,-0.012980886311707827,-0.04673119072214818,-0.004581489286485115,-51.373867290266006,12.554808535515932,-103.6246711487869
1686918742,-0.5730810127,2.5770699402,9.6562356023,-0.012980886311707827,-0.04673119072214818,-0.004581489286485115,-51.02309266296404,12.379421221864952,-103.84390529085064
1686918742,-0.574277424,2.5854448193,9.6502535458,-0.012828170002158322,-0.04520402762665313,-0.004276056667386108,-50.438468284127445,12.949429991230636,-103.56620871090325
1686918742,-0.574277424,2.5854448193,9.6502535458,-0.012828170002158322,-0.04520402762665313,-0.004276056667386108,-50.964630225080384,12.58403975445776,-103.69774919614147
1686918742,-0.5682953675,2.596212521,9.6526463684,-0.012675453692608817,-0.04673119072214818,-0.004276056667386108,-51.24232680502777,12.43788365974861,-104.22391113709442
1686918742,-0.5682953675,2.596212521,9.6526463684,-0.012675453692608817,-0.04673119072214818,-0.004276056667386108,-51.50540777550424,12.423268050277697,-103.68313358667056
1686918742,-0.574277424,2.5926232871,9.6454679006,-0.012980886311707827,-0.04627304179349966,-0.004734205596034618,-51.22771119555686,12.61327097339959,-103.90236772873429
1686918742,-0.574277424,2.5926232871,9.6454679006,-0.012980886311707827,-0.04627304179349966,-0.004734205596034618,-51.43232972814966,12.087109032446651,-103.81467407190881
1686918742,-0.5706881900999999,2.5842484079999997,9.6526463684,-0.013439035240356337,-0.047189339650796684,-0.005345070834232635,-51.33002046185325,12.78865828705057,-103.20081847413036
1686918742,-0.5706881900999999,2.5842484079999997,9.6526463684,-0.013439035240356337,-0.047189339650796684,-0.005345070834232635,-51.593101432329725,12.774042677579656,-104.2092955276235
1686918742,-0.5778666579,2.5818555854,9.655039191,-0.013286318930806833,-0.04642575810304917,-0.005039638215133627,-51.24232680502777,12.379421221864952,-103.17158725518854
1686918742,-0.5778666579,2.5818555854,9.655039191,-0.013286318930806833,-0.04642575810304917,-0.005039638215133627,-51.33002046185325,12.993276819643379,-102.61619409529376
1686918743,-0.586241537,2.5782663514999995,9.6502535458,-0.01313360262125733,-0.04627304179349966,-0.004276056667386108,-50.93539900613856,12.730195849166911,-102.68927214264836
1686918743,-0.5682953675,2.5794627628,9.6538427797,-0.012522737383059314,-0.047342055960346185,-0.004428772976935611,-50.80385852090033,12.832505115463313,-102.99619994153757
1686918743,-0.5682953675,2.5794627628,9.6538427797,-0.012522737383059314,-0.047342055960346185,-0.004428772976935611,-51.037708272434955,12.949429991230636,-102.80619701841567
1686918743,-0.5778666579,2.5758735289,9.6514499571,-0.012522737383059314,-0.047189339650796684,-0.004886921905584123,-50.920783396667645,12.8178895059924,-103.94621455714703
1686918743,-0.5778666579,2.5758735289,9.6514499571,-0.012522737383059314,-0.047189339650796684,-0.004886921905584123,-51.12540192926045,12.774042677579656,-103.34697456883953
1686918743,-0.5790630692000001,2.5866412306,9.6502535458,-0.012980886311707827,-0.04612032548395016,-0.004428772976935611,-51.28617363344051,12.920198772288805,-104.03390821397251
1686918743,-0.5790630692000001,2.5866412306,9.6502535458,-0.012980886311707827,-0.04612032548395016,-0.004428772976935611,-51.00847705349313,13.168664133294358,-103.46389944460684
1686918743,-0.5706881900999999,2.5854448193,9.6478607232,-0.012522737383059314,-0.046883907031697675,-0.005039638215133627,-51.25694241449869,13.212510961707103,-104.73545746857644
1686918743,-0.5706881900999999,2.5854448193,9.6478607232,-0.012522737383059314,-0.046883907031697675,-0.005039638215133627,-51.34463607132418,12.8178895059924,-103.7269804150833
1686918743,-0.5754738353000001,2.5842484079999997,9.646664311899999,-0.012980886311707827,-0.048411070127192715,-0.005497787143782138,-51.15463314820228,12.87635194387606,-103.84390529085064
1686918743,-0.5754738353000001,2.5842484079999997,9.646664311899999,-0.012980886311707827,-0.048411070127192715,-0.005497787143782138,-51.25694241449869,12.554808535515932,-104.47237649809998
1686918743,-0.5718846014,2.5890340532,9.643075077999999,-0.012980886311707827,-0.048411070127192715,-0.004886921905584123,-51.417714118678745,12.218649517684888,-103.88775211926338
1686918743,-0.5718846014,2.5890340532,9.643075077999999,-0.012980886311707827,-0.048411070127192715,-0.004886921905584123,-51.1838643671441,12.525577316574102,-103.25928091201403
1686918743,-0.5754738353000001,2.5878376418999998,9.6514499571,-0.012828170002158322,-0.04642575810304917,-0.004734205596034618,-51.73925752703887,12.832505115463313,-103.94621455714703
1686918743,-0.5754738353000001,2.5878376418999998,9.6514499571,-0.012828170002158322,-0.0478002048889947,-0.004886921905584123,-51.43232972814966,12.934814381759718,-103.99006138555977
1686918743,-0.5706881900999999,2.5842484079999997,9.6538427797,-0.012828170002158322,-0.0478002048889947,-0.004886921905584123,-51.476176556562415,12.598655363928676,-103.23004969307219
1686918743,-0.5706881900999999,2.5842484079999997,9.6538427797,-0.012675453692608817,-0.047342055960346185,-0.004276056667386108,-51.16924875767319,13.037123648056124,-103.7269804150833
1686918743,-0.5682953675,2.5854448193,9.646664311899999,-0.012675453692608817,-0.047342055960346185,-0.004276056667386108,-51.140017538731364,12.335574393452207,-103.23004969307219
1686918743,-0.5682953675,2.5854448193,9.646664311899999,-0.012980886311707827,-0.04673119072214818,-0.004581489286485115,-51.35925168079509,12.78865828705057,-103.77082724349604
1686918743,-0.5635097223,2.5854448193,9.6634140701,-0.012980886311707827,-0.04673119072214818,-0.004581489286485115,-51.24232680502777,12.890967553346973,-103.17158725518854
1686918743,-0.5635097223,2.5854448193,9.6634140701,-0.012522737383059314,-0.04673119072214818,-0.004734205596034618,-51.140017538731364,13.066354866997953,-103.24466530254313
1686918743,-0.574277424,2.5902304645,9.655039191,-0.012522737383059314,-0.04673119072214818,-0.004734205596034618,-51.2715580239696,12.744811458637825,-102.80619701841567
1686918743,-0.5838487144,2.5806591741,9.6490571345,-0.012980886311707827,-0.045662176555301644,-0.004734205596034618,-51.06693949137679,12.525577316574102,-103.7269804150833
1686918743,-0.5838487144,2.5806591741,9.6490571345,-0.012980886311707827,-0.045662176555301644,-0.004734205596034618,-51.76848874598071,13.241742180648933,-103.52236188249051
1686918743,-0.5754738353000001,2.5794627628,9.655039191,-0.012980886311707827,-0.047189339650796684,-0.004886921905584123,-51.81233557439345,12.759427068108739,-103.09850920783397
1686918743,-0.5754738353000001,2.5794627628,9.655039191,-0.012980886311707827,-0.047189339650796684,-0.004886921905584123,-51.35925168079509,12.700964630225082,-103.08389359836305
1686918743,-0.5754738353000001,2.5794627628,9.661021247499999,-0.013286318930806833,-0.04657847441259867,-0.004123340357836604,-51.50540777550424,13.300204618532593,-103.610055539316
1686918743,-0.5754738353000001,2.5794627628,9.661021247499999,-0.013286318930806833,-0.04657847441259867,-0.004123340357836604,-50.86232095878398,12.744811458637825,-103.17158725518854
1686918743,-0.5682953675,2.5794627628,9.6562356023,-0.013286318930806833,-0.045662176555301644,-0.0039706240482871,-51.63694826074248,13.300204618532593,-103.20081847413036
1686918743,-0.5682953675,2.5794627628,9.6562356023,-0.013286318930806833,-0.045662176555301644,-0.0039706240482871,-51.40309850920784,12.861736334405144,-104.10698626132711
1686918743,-0.574277424,2.5854448193,9.646664311899999,-0.012675453692608817,-0.045356743936202634,-0.004276056667386108,-51.1838643671441,12.627886582870506,-103.80005846243789
1686918743,-0.574277424,2.5854448193,9.646664311899999,-0.012675453692608817,-0.045356743936202634,-0.004276056667386108,-51.22771119555686,13.110201695410698,-103.18620286465945
1686918743,-0.5778666579,2.5902304645,9.6502535458,-0.012522737383059314,-0.047342055960346185,-0.0039706240482871,-51.31540485238234,12.934814381759718,-103.7123648056124
1686918743,-0.5778666579,2.5902304645,9.6502535458,-0.012522737383059314,-0.047342055960346185,-0.0039706240482871,-51.22771119555686,13.490207541654486,-103.69774919614147
1686918743,-0.574277424,2.5854448193,9.655039191,-0.012828170002158322,-0.04596760917440065,-0.003665191429188092,-51.00847705349313,12.861736334405144,-104.15083308973985
1686918743,-0.574277424,2.5854448193,9.655039191,-0.012828170002158322,-0.04596760917440065,-0.003665191429188092,-51.21309558608594,12.627886582870506,-103.14235603624671
1686918743,-0.5730810127,2.5878376418999998,9.6454679006,-0.012675453692608817,-0.04581489286485115,-0.004734205596034618,-50.83308973984215,12.657117801812333,-103.42005261619408
1686918743,-0.5730810127,2.5878376418999998,9.6454679006,-0.012675453692608817,-0.04581489286485115,-0.004734205596034618,-50.613855597778425,12.84712072493423,-102.86465945629932
1686918743,-0.5754738353000001,2.5854448193,9.646664311899999,-0.012980886311707827,-0.04612032548395016,-0.00519235452468313,-51.00847705349313,12.8178895059924,-103.93159894767612
1686918743,-0.5754738353000001,2.5854448193,9.646664311899999,-0.012980886311707827,-0.04612032548395016,-0.00519235452468313,-51.35925168079509,12.803273896521485,-104.09237065185619
1686918743,-0.5766702466,2.5854448193,9.6502535458,-0.012980886311707827,-0.04642575810304917,-0.004886921905584123,-50.891552177725806,12.774042677579656,-103.81467407190881
1686918743,-0.5766702466,2.5854448193,9.6502535458,-0.012980886311707827,-0.04642575810304917,-0.004886921905584123,-51.417714118678745,12.949429991230636,-103.85852090032155
1686918743,-0.5718846014,2.5830519966999996,9.6538427797,-0.012828170002158322,-0.047342055960346185,-0.004581489286485115,-51.06693949137679,13.183279742765272,-104.2092955276235
1686918743,-0.5718846014,2.5830519966999996,9.6538427797,-0.012828170002158322,-0.047342055960346185,-0.004581489286485115,-51.38848289973692,13.300204618532593,-104.64776381175096
1686918743,-0.5730810127,2.5794627628,9.655039191,-0.012828170002158322,-0.047952921198544204,-0.004886921905584123,-50.920783396667645,12.58403975445776,-103.42005261619408
1686918743,-0.5730810127,2.5794627628,9.655039191,-0.012828170002158322,-0.04627304179349966,-0.004428772976935611,-50.818474130371236,12.525577316574102,-103.81467407190881
1686918743,-0.5754738353000001,2.5782663514999995,9.6442714893,-0.012828170002158322,-0.04627304179349966,-0.004428772976935611,-51.05232388190587,12.686349020754164,-103.90236772873429
1686918743,-0.5754738353000001,2.5782663514999995,9.6442714893,-0.012828170002158322,-0.04612032548395016,-0.004734205596034618,-51.1838643671441,12.774042677579656,-103.39082139725227
1686918743,-0.5790630692000001,2.5746771176,9.6502535458,-0.012828170002158322,-0.04612032548395016,-0.004734205596034618,-51.21309558608594,12.744811458637825,-103.75621163402514
1686918743,-0.5790630692000001,2.5746771176,9.6502535458,-0.012980886311707827,-0.04657847441259867,-0.004581489286485115,-51.15463314820228,13.168664133294358,-103.75621163402514
1686918743,-0.5730810127,2.5878376418999998,9.655039191,-0.012980886311707827,-0.04657847441259867,-0.004581489286485115,-51.21309558608594,13.02250803858521,-103.15697164571762
1686918743,-0.5730810127,2.5878376418999998,9.643075077999999,-0.012828170002158322,-0.04596760917440065,-0.004428772976935611,-50.86232095878398,13.25635779011985,-103.49313066354865
1686918743,-0.574277424,2.5830519966999996,9.643075077999999,-0.012828170002158322,-0.04596760917440065,-0.004428772976935611,-51.24232680502777,13.139432914352527,-102.6600409237065
1686918743,-0.574277424,2.5866412306,9.6418786667,-0.01313360262125733,-0.04642575810304917,-0.004428772976935611,-50.83308973984215,12.78865828705057,-102.79158140894475
1686918743,-0.574277424,2.5866412306,9.6418786667,-0.01313360262125733,-0.04642575810304917,-0.004428772976935611,-51.05232388190587,12.84712072493423,-103.17158725518854
1686918743,-0.5706881900999999,2.5878376418999998,9.646664311899999,-0.012828170002158322,-0.046883907031697675,-0.004734205596034618,-51.05232388190587,12.920198772288805,-102.55773165741012
1686918743,-0.5706881900999999,2.5878376418999998,9.646664311899999,-0.012828170002158322,-0.046883907031697675,-0.004734205596034618,-50.9792458345513,12.525577316574102,-103.39082139725227
1686918743,-0.5730810127,2.5830519966999996,9.643075077999999,-0.012980886311707827,-0.04627304179349966,-0.004581489286485115,-50.950014615609476,12.803273896521485,-103.25928091201403
1686918743,-0.5730810127,2.5830519966999996,9.643075077999999,-0.012980886311707827,-0.04627304179349966,-0.004581489286485115,-51.15463314820228,12.394036831335868,-103.50774627301958
1686918743,-0.5706881900999999,2.5842484079999997,9.6490571345,-0.012522737383059314,-0.04657847441259867,-0.005039638215133627,-51.02309266296404,12.627886582870506,-102.98158433206666
1686918743,-0.5706881900999999,2.5842484079999997,9.6490571345,-0.012522737383059314,-0.04657847441259867,-0.005039638215133627,-50.90616778719672,12.335574393452207,-102.82081262788658
1686918743,-0.5766702466,2.5890340532,9.6418786667,-0.012522737383059314,-0.04642575810304917,-0.004428772976935611,-51.037708272434955,12.408652440806781,-102.63080970476469
1686918743,-0.5766702466,2.5890340532,9.6418786667,-0.012522737383059314,-0.04642575810304917,-0.004428772976935611,-50.83308973984215,13.037123648056124,-102.4408067816428
1686918743,-0.5778666579,2.5806591741,9.6442714893,-0.013286318930806833,-0.045662176555301644,-0.004276056667386108,-51.16924875767319,13.08097047646887,-102.5431160479392
1686918743,-0.5778666579,2.5806591741,9.6442714893,-0.013286318930806833,-0.045662176555301644,-0.004276056667386108,-50.93539900613856,12.759427068108739,-102.77696579947384
1686918743,-0.5802594805,2.5782663514999995,9.633503787599999,-0.013286318930806833,-0.046883907031697675,-0.004581489286485115,-51.140017538731364,12.496346097632271,-102.7331189710611
1686918743,-0.5802594805,2.5782663514999995,9.633503787599999,-0.013286318930806833,-0.046883907031697675,-0.004581489286485115,-51.02309266296404,12.774042677579656,-103.21543408360128
1686918743,-0.5814558918,2.5806591741,9.633503787599999,-0.013286318930806833,-0.04673119072214818,-0.004581489286485115,-50.84770534931307,12.934814381759718,-103.25928091201403
1686918743,-0.5814558918,2.5806591741,9.633503787599999,-0.013286318930806833,-0.04673119072214818,-0.004581489286485115,-50.540777550423854,12.730195849166911,-102.74773458053201
1686918743,-0.5814558918,2.5806591741,9.643075077999999,-0.013286318930806833,-0.04642575810304917,-0.00519235452468313,-50.920783396667645,13.02250803858521,-102.60157848582286
1686918743,-0.5814558918,2.5806591741,9.643075077999999,-0.013286318930806833,-0.04642575810304917,-0.00519235452468313,-50.365390236772875,12.78865828705057,-102.89389067524115
1686918743,-0.574277424,2.5734807063,9.643075077999999,-0.01313360262125733,-0.04657847441259867,-0.004886921905584123,-50.52616194095294,12.35019000292312,-102.87927506577023
1686918743,-0.574277424,2.5734807063,9.643075077999999,-0.01313360262125733,-0.04657847441259867,-0.004428772976935611,-50.438468284127445,13.270973399590764,-102.77696579947384
1686918743,-0.5754738353000001,2.5770699402,9.6418786667,-0.012980886311707827,-0.04642575810304917,-0.004428772976935611,-50.55539315989477,13.168664133294358,-102.42619117217188
1686918743,-0.5754738353000001,2.5770699402,9.6418786667,-0.012828170002158322,-0.046883907031697675,-0.004734205596034618,-50.920783396667645,12.510961707103185,-103.24466530254313
1686918743,-0.5778666579,2.5842484079999997,9.6370930215,-0.012828170002158322,-0.046883907031697675,-0.004734205596034618,-51.22771119555686,12.949429991230636,-103.37620578778134
1686918743,-0.5778666579,2.5842484079999997,9.6370930215,-0.012828170002158322,-0.047494772269895694,-0.004581489286485115,-50.540777550423854,12.598655363928676,-104.09237065185619
1686918743,-0.5647061336,2.5902304645,9.6406822554,-0.012828170002158322,-0.047494772269895694,-0.004581489286485115,-50.62847120724933,12.481730488161356,-102.85004384682841
1686918743,-0.5647061336,2.5902304645,9.6406822554,-0.012064588454410803,-0.04596760917440065,-0.004276056667386108,-50.613855597778425,12.627886582870506,-103.85852090032155
1686918743,-0.5718846014,2.5842484079999997,9.6454679006,-0.012064588454410803,-0.04596760917440065,-0.004276056667386108,-51.16924875767319,12.920198772288805,-103.9169833382052
1686918743,-0.5718846014,2.5902304645,9.6394858441,-0.012828170002158322,-0.04657847441259867,-0.005039638215133627,-51.2715580239696,12.700964630225082,-102.98158433206666
1686918743,-0.5718846014,2.5902304645,9.6394858441,-0.012828170002158322,-0.04657847441259867,-0.005039638215133627,-51.2715580239696,12.759427068108739,-103.46389944460684
1686918743,-0.5814558918,2.5890340532,9.634700198900001,-0.012828170002158322,-0.04581489286485115,-0.005345070834232635,-50.87693656825489,12.730195849166911,-103.96083016661794
1686918743,-0.5814558918,2.5890340532,9.634700198900001,-0.012828170002158322,-0.04581489286485115,-0.005345070834232635,-50.74539608301666,13.037123648056124,-103.39082139725227
1686918743,-0.5790630692000001,2.5782663514999995,9.6526463684,-0.013286318930806833,-0.04673119072214818,-0.005650503453331642,-51.12540192926045,12.832505115463313,-103.69774919614147
1686918743,-0.5790630692000001,2.5782663514999995,9.6526463684,-0.013286318930806833,-0.04673119072214818,-0.005650503453331642,-50.93539900613856,12.218649517684888,-102.98158433206666
1686918743,-0.5718846014,2.5758735289,9.646664311899999,-0.012980886311707827,-0.04810563750809371,-0.00519235452468313,-50.993861444022215,13.007892429114293,-103.46389944460684
1686918743,-0.5718846014,2.5758735289,9.646664311899999,-0.012980886311707827,-0.04810563750809371,-0.00519235452468313,-50.920783396667645,12.949429991230636,-103.39082139725227
1686918743,-0.5730810127,2.5734807063,9.6454679006,-0.012828170002158322,-0.04642575810304917,-0.004123340357836604,-50.891552177725806,12.744811458637825,-103.23004969307219
1686918743,-0.5730810127,2.5734807063,9.6454679006,-0.012828170002158322,-0.04642575810304917,-0.004123340357836604,-50.964630225080384,13.168664133294358,-103.09850920783397
1686918743,-0.5706881900999999,2.5830519966999996,9.646664311899999,-0.012828170002158322,-0.047036623341247176,-0.004428772976935611,-50.686933645133,13.227126571178019,-103.88775211926338
1686918743,-0.5706881900999999,2.5830519966999996,9.646664311899999,-0.012828170002158322,-0.047036623341247176,-0.004428772976935611,-50.86232095878398,12.920198772288805,-103.24466530254313
1686918743,-0.5730810127,2.5854448193,9.6418786667,-0.012828170002158322,-0.04612032548395016,-0.004581489286485115,-50.78924291142941,13.066354866997953,-103.23004969307219
1686918743,-0.5730810127,2.5854448193,9.6418786667,-0.012828170002158322,-0.04612032548395016,-0.004581489286485115,-51.02309266296404,12.700964630225082,-103.17158725518854
1686918743,-0.5766702466,2.5890340532,9.6442714893,-0.012370021073509811,-0.047494772269895694,-0.004886921905584123,-51.12540192926045,12.510961707103185,-104.29698918444899
1686918743,-0.5766702466,2.5890340532,9.6442714893,-0.012370021073509811,-0.047494772269895694,-0.004886921905584123,-50.90616778719672,13.05173925752704,-103.40543700672318
1686918743,-0.5778666579,2.5854448193,9.6538427797,-0.012522737383059314,-0.047342055960346185,-0.004734205596034618,-51.12540192926045,13.168664133294358,-103.34697456883953
1686918744,-0.5778666579,2.5854448193,9.6538427797,-0.012522737383059314,-0.047342055960346185,-0.004734205596034618,-50.86232095878398,12.744811458637825,-103.04004676995031
1686918744,-0.5790630692000001,2.5830519966999996,9.6418786667,-0.012370021073509811,-0.047342055960346185,-0.004886921905584123,-51.28617363344051,12.467114878690442,-103.25928091201403
1686918744,-0.5790630692000001,2.5830519966999996,9.6418786667,-0.012370021073509811,-0.04642575810304917,-0.004581489286485115,-51.22771119555686,12.949429991230636,-103.20081847413036
1686918744,-0.5730810127,2.5866412306,9.6454679006,-0.012522737383059314,-0.04642575810304917,-0.004581489286485115,-50.67231803566209,12.96404560070155,-103.78544285296695
1686918744,-0.5730810127,2.5866412306,9.6454679006,-0.012370021073509811,-0.047494772269895694,-0.004428772976935611,-50.93539900613856,12.993276819643379,-103.42005261619408
1686918744,-0.5659025448999999,2.5770699402,9.643075077999999,-0.012370021073509811,-0.047494772269895694,-0.004428772976935611,-51.417714118678745,12.686349020754164,-103.30312774042679
1686918744,-0.5659025448999999,2.5770699402,9.643075077999999,-0.012980886311707827,-0.048258353817643214,-0.004428772976935611,-50.93539900613856,13.095586085939784,-103.46389944460684
1686918744,-0.5730810127,2.5806591741,9.6502535458,-0.012980886311707827,-0.048258353817643214,-0.004428772976935611,-50.93539900613856,12.861736334405144,-103.56620871090325
1686918744,-0.5730810127,2.5806591741,9.6406822554,-0.012828170002158322,-0.046883907031697675,-0.00519235452468313,-51.140017538731364,12.832505115463313,-103.28851213095587
1686918744,-0.5766702466,2.5902304645,9.6406822554,-0.012828170002158322,-0.046883907031697675,-0.00519235452468313,-51.05232388190587,13.227126571178019,-104.00467699503069
1686918744,-0.5766702466,2.5854448193,9.6490571345,-0.012980886311707827,-0.04612032548395016,-0.004581489286485115,-50.67231803566209,12.67173341128325,-103.610055539316
1686918744,-0.5766702466,2.5854448193,9.6490571345,-0.012980886311707827,-0.04612032548395016,-0.004581489286485115,-50.87693656825489,12.642502192341421,-103.20081847413036
1686918744,-0.5790630692000001,2.5830519966999996,9.6478607232,-0.01313360262125733,-0.045662176555301644,-0.004886921905584123,-51.11078631978954,12.744811458637825,-103.74159602455421
1686918744,-0.5790630692000001,2.5830519966999996,9.6478607232,-0.01313360262125733,-0.045662176555301644,-0.004886921905584123,-50.920783396667645,12.715580239695996,-104.10698626132711
1686918744,-0.5778666579,2.5758735289,9.6454679006,-0.012675453692608817,-0.04673119072214818,-0.004886921905584123,-51.21309558608594,12.715580239695996,-103.53697749196142
1686918744,-0.5778666579,2.5758735289,9.6454679006,-0.012675453692608817,-0.04673119072214818,-0.004886921905584123,-50.83308973984215,13.02250803858521,-103.21543408360128
1686918744,-0.5826523031,2.5770699402,9.6478607232,-0.012675453692608817,-0.047189339650796684,-0.004886921905584123,-50.818474130371236,12.84712072493423,-103.3323589593686
1686918744,-0.5826523031,2.5770699402,9.6478607232,-0.012675453692608817,-0.047189339650796684,-0.004886921905584123,-51.38848289973692,12.920198772288805,-103.37620578778134
1686918744,-0.5670989562,2.5806591741,9.655039191,-0.012675453692608817,-0.047647488579445195,-0.004123340357836604,-50.93539900613856,12.744811458637825,-103.40543700672318
1686918744,-0.5670989562,2.5806591741,9.655039191,-0.012675453692608817,-0.047647488579445195,-0.004123340357836604,-51.417714118678745,12.759427068108739,-102.6454253142356
1686918744,-0.5682953675,2.5866412306,9.643075077999999,-0.012217304763960306,-0.047189339650796684,-0.004276056667386108,-51.46156094709149,12.61327097339959,-103.85852090032155
1686918744,-0.5682953675,2.5866412306,9.643075077999999,-0.012217304763960306,-0.047189339650796684,-0.004276056667386108,-51.71002630809704,13.037123648056124,-103.53697749196142
1686918744,-0.5778666579,2.5866412306,9.6538427797,-0.012370021073509811,-0.04596760917440065,-0.004428772976935611,-51.1838643671441,12.686349020754164,-103.434668225665
1686918744,-0.5778666579,2.5866412306,9.6538427797,-0.012370021073509811,-0.04596760917440065,-0.004428772976935611,-51.40309850920784,12.642502192341421,-104.2092955276235
1686918744,-0.5766702466,2.5890340532,9.6526463684,-0.012370021073509811,-0.04657847441259867,-0.004734205596034618,-51.08155510084771,13.314820228003507,-103.46389944460684
1686918744,-0.5766702466,2.5890340532,9.6526463684,-0.012370021073509811,-0.04657847441259867,-0.004734205596034618,-50.920783396667645,12.87635194387606,-103.0254311604794
1686918744,-0.5826523031,2.5902304645,9.646664311899999,-0.012828170002158322,-0.04673119072214818,-0.004886921905584123,-50.86232095878398,12.627886582870506,-103.28851213095587
1686918744,-0.5826523031,2.5902304645,9.646664311899999,-0.012828170002158322,-0.04673119072214818,-0.004886921905584123,-50.716164864074834,12.686349020754164,-103.58082432037416
1686918744,-0.5814558918,2.5854448193,9.6502535458,-0.013286318930806833,-0.0478002048889947,-0.00519235452468313,-50.570008769365685,12.774042677579656,-103.12774042677579
1686918744,-0.5814558918,2.5854448193,9.6502535458,-0.013286318930806833,-0.0478002048889947,-0.005039638215133627,-50.62847120724933,13.02250803858521,-103.06927798889214
1686918744,-0.5802594805,2.5806591741,9.6478607232,-0.012828170002158322,-0.04673119072214818,-0.005039638215133627,-50.818474130371236,12.408652440806781,-103.56620871090325
1686918744,-0.5802594805,2.5806591741,9.6478607232,-0.012828170002158322,-0.044898595007554123,-0.004428772976935611,-50.74539608301666,12.759427068108739,-103.52236188249051
1686918744,-0.5706881900999999,2.5794627628,9.655039191,-0.012828170002158322,-0.044898595007554123,-0.004428772976935611,-50.993861444022215,12.58403975445776,-103.08389359836305
1686918744,-0.5706881900999999,2.5794627628,9.655039191,-0.012828170002158322,-0.04657847441259867,-0.004581489286485115,-50.67231803566209,12.744811458637825,-102.93773750365389
1686918744,-0.5730810127,2.5770699402,9.6586284249,-0.012828170002158322,-0.04657847441259867,-0.004581489286485115,-50.964630225080384,13.02250803858521,-103.34697456883953
1686918744,-0.5730810127,2.5770699402,9.6586284249,-0.012675453692608817,-0.04657847441259867,-0.004428772976935611,-51.24232680502777,12.657117801812333,-102.71850336159018
1686918744,-0.574277424,2.5794627628,9.6490571345,-0.012675453692608817,-0.04657847441259867,-0.004428772976935611,-50.891552177725806,13.066354866997953,-103.28851213095587
1686918744,-0.574277424,2.5854448193,9.6538427797,-0.012522737383059314,-0.046883907031697675,-0.004886921905584123,-52.002338497515346,12.642502192341421,-103.46389944460684
1686918744,-0.5754738353000001,2.5854448193,9.6538427797,-0.012522737383059314,-0.046883907031697675,-0.004886921905584123,-51.71002630809704,12.803273896521485,-103.56620871090325
1686918744,-0.574277424,2.5926232871,9.6526463684,-0.012675453692608817,-0.04581489286485115,-0.004581489286485115,-51.19847997661503,12.627886582870506,-103.04004676995031
1686918744,-0.574277424,2.5926232871,9.6526463684,-0.012675453692608817,-0.04581489286485115,-0.004581489286485115,-50.86232095878398,12.277111955568547,-103.49313066354865
1686918744,-0.5766702466,2.5854448193,9.6514499571,-0.012828170002158322,-0.04581489286485115,-0.004428772976935611,-51.00847705349313,12.554808535515932,-103.90236772873429
1686918744,-0.5766702466,2.5854448193,9.6514499571,-0.012828170002158322,-0.04581489286485115,-0.004428772976935611,-51.12540192926045,12.774042677579656,-103.74159602455421
1686918744,-0.5694917788,2.5878376418999998,9.6502535458,-0.012675453692608817,-0.048258353817643214,-0.004428772976935611,-51.520023384975154,12.87635194387606,-103.6246711487869
1686918744,-0.5694917788,2.5878376418999998,9.6502535458,-0.012675453692608817,-0.048258353817643214,-0.004428772976935611,-51.30078924291143,12.84712072493423,-103.81467407190881
1686918744,-0.5694917788,2.5830519966999996,9.6514499571,-0.012675453692608817,-0.04657847441259867,-0.005039638215133627,-50.73078047354574,12.832505115463313,-102.79158140894475
1686918744,-0.5694917788,2.5830519966999996,9.6514499571,-0.012675453692608817,-0.04657847441259867,-0.005039638215133627,-51.037708272434955,12.993276819643379,-103.39082139725227
1686918744,-0.5730810127,2.5890340532,9.6358966102,-0.01313360262125733,-0.04657847441259867,-0.004886921905584123,-51.34463607132418,12.8178895059924,-103.3177433498977
1686918744,-0.5730810127,2.5890340532,9.6358966102,-0.01313360262125733,-0.04657847441259867,-0.004886921905584123,-50.83308973984215,13.007892429114293,-102.67465653317744
1686918744,-0.5718846014,2.5830519966999996,9.6454679006,-0.012980886311707827,-0.045662176555301644,-0.004734205596034618,-51.63694826074248,13.007892429114293,-102.77696579947384
1686918744,-0.5718846014,2.5830519966999996,9.6454679006,-0.012980886311707827,-0.045662176555301644,-0.004734205596034618,-51.68079508915522,12.803273896521485,-103.04004676995031
1686918744,-0.5778666579,2.5854448193,9.6323073763,-0.012828170002158322,-0.045662176555301644,-0.004428772976935611,-51.373867290266006,12.920198772288805,-102.67465653317744
1686918744,-0.5778666579,2.5854448193,9.6323073763,-0.012828170002158322,-0.045662176555301644,-0.004428772976935611,-50.920783396667645,13.066354866997953,-102.11926337328268
1686918744,-0.5838487144,2.5818555854,9.6478607232,-0.012675453692608817,-0.04657847441259867,-0.00519235452468313,-51.34463607132418,12.35019000292312,-102.6600409237065
1686918744,-0.5838487144,2.5818555854,9.6478607232,-0.012675453692608817,-0.04657847441259867,-0.00519235452468313,-50.964630225080384,12.67173341128325,-103.05466237942123
1686918744,-0.574277424,2.5806591741,9.6490571345,-0.012828170002158322,-0.04673119072214818,-0.00519235452468313,-51.1838643671441,12.978661210172465,-103.47851505407775
1686918744,-0.574277424,2.5806591741,9.6490571345,-0.012828170002158322,-0.04673119072214818,-0.00519235452468313,-50.76001169248757,12.832505115463313,-102.85004384682841
1686918744,-0.5766702466,2.5770699402,9.646664311899999,-0.012828170002158322,-0.04673119072214818,-0.004734205596034618,-51.096170710318624,13.183279742765272,-103.78544285296695
1686918744,-0.5766702466,2.5770699402,9.646664311899999,-0.012828170002158322,-0.04673119072214818,-0.004734205596034618,-50.83308973984215,13.227126571178019,-103.06927798889214
1686918744,-0.5778666579,2.5770699402,9.6526463684,-0.012675453692608817,-0.046883907031697675,-0.005039638215133627,-51.06693949137679,12.949429991230636,-103.24466530254313
1686918744,-0.5778666579,2.5770699402,9.6526463684,-0.012370021073509811,-0.04581489286485115,-0.004734205596034618,-50.86232095878398,13.534054370067231,-103.3323589593686
1686918744,-0.5670989562,2.5782663514999995,9.6502535458,-0.012370021073509811,-0.04581489286485115,-0.004734205596034618,-51.24232680502777,13.05173925752704,-103.610055539316
1686918744,-0.5670989562,2.5782663514999995,9.6502535458,-0.012828170002158322,-0.04627304179349966,-0.004428772976935611,-51.50540777550424,13.431745103770828,-103.3177433498977
1686918744,-0.5814558918,2.5830519966999996,9.6454679006,-0.012828170002158322,-0.04627304179349966,-0.004428772976935611,-51.19847997661503,12.861736334405144,-102.96696872259574
1686918744,-0.5814558918,2.5830519966999996,9.6454679006,-0.012675453692608817,-0.047647488579445195,-0.004886921905584123,-51.34463607132418,12.8178895059924,-103.39082139725227
1686918744,-0.5718846014,2.5794627628,9.6514499571,-0.012675453692608817,-0.047647488579445195,-0.004886921905584123,-51.28617363344051,13.241742180648933,-102.76235019000293
1686918744,-0.5718846014,2.5818555854,9.6490571345,-0.012980886311707827,-0.047189339650796684,-0.004734205596034618,-51.096170710318624,12.58403975445776,-103.96083016661794
1686918744,-0.5790630692000001,2.5818555854,9.6490571345,-0.012980886311707827,-0.047189339650796684,-0.004734205596034618,-51.563870213387894,13.227126571178019,-103.58082432037416
1686918744,-0.5659025448999999,2.5842484079999997,9.6574320136,-0.012980886311707827,-0.04627304179349966,-0.004734205596034618,-50.87693656825489,12.569424144986845,-103.50774627301958
1686918744,-0.5659025448999999,2.5842484079999997,9.6574320136,-0.012980886311707827,-0.04627304179349966,-0.004734205596034618,-51.2715580239696,12.67173341128325,-103.610055539316
1686918744,-0.5718846014,2.5878376418999998,9.6490571345,-0.012980886311707827,-0.047036623341247176,-0.004581489286485115,-51.15463314820228,13.183279742765272,-102.86465945629932
1686918744,-0.5718846014,2.5878376418999998,9.6490571345,-0.012980886311707827,-0.047036623341247176,-0.004581489286485115,-51.33002046185325,13.183279742765272,-103.23004969307219
1686918744,-0.5778666579,2.5818555854,9.6442714893,-0.012980886311707827,-0.047036623341247176,-0.005039638215133627,-50.67231803566209,12.730195849166911,-103.24466530254313
1686918744,-0.5778666579,2.5818555854,9.6442714893,-0.012980886311707827,-0.047036623341247176,-0.005039638215133627,-51.16924875767319,13.183279742765272,-103.25928091201403
1686918744,-0.5694917788,2.5806591741,9.6514499571,-0.013286318930806833,-0.04550946024575214,-0.004886921905584123,-51.24232680502777,12.715580239695996,-103.63928675825782
1686918744,-0.5694917788,2.5806591741,9.6514499571,-0.013286318930806833,-0.04550946024575214,-0.004886921905584123,-50.993861444022215,12.700964630225082,-103.65390236772873
1686918744,-0.5814558918,2.572284295,9.6538427797,-0.01313360262125733,-0.04627304179349966,-0.005497787143782138,-50.613855597778425,12.540192926045016,-103.01081555100848
1686918744,-0.5814558918,2.572284295,9.6538427797,-0.01313360262125733,-0.04627304179349966,-0.005497787143782138,-50.716164864074834,12.861736334405144,-102.49926921952645
1686918744,-0.5754738353000001,2.5758735289,9.6622176588,-0.012675453692608817,-0.04642575810304917,-0.004734205596034618,-50.774627301958496,12.759427068108739,-103.42005261619408
1686918744,-0.5754738353000001,2.5758735289,9.6622176588,-0.012675453692608817,-0.04642575810304917,-0.004734205596034618,-50.9792458345513,12.90558316281789,-103.3177433498977
1686918744,-0.5790630692000001,2.5746771176,9.646664311899999,-0.012675453692608817,-0.04627304179349966,-0.0039706240482871,-51.22771119555686,12.832505115463313,-103.6246711487869
1686918744,-0.5790630692000001,2.5746771176,9.646664311899999,-0.012675453692608817,-0.04627304179349966,-0.0039706240482871,-50.46769950306928,13.007892429114293,-103.6246711487869
1686918744,-0.574277424,2.5866412306,9.646664311899999,-0.012522737383059314,-0.046883907031697675,-0.004886921905584123,-51.00847705349313,12.627886582870506,-103.85852090032155
1686918744,-0.574277424,2.5866412306,9.646664311899999,-0.012522737383059314,-0.046883907031697675,-0.004886921905584123,-50.74539608301666,12.8178895059924,-103.08389359836305
1686918744,-0.5754738353000001,2.5878376418999998,9.6634140701,-0.012522737383059314,-0.04642575810304917,-0.004428772976935611,-50.78924291142941,12.890967553346973,-103.52236188249051
1686918744,-0.5754738353000001,2.5878376418999998,9.6634140701,-0.012522737383059314,-0.04642575810304917,-0.004428772976935611,-50.716164864074834,12.949429991230636,-102.85004384682841
1686918744,-0.5754738353000001,2.5890340532,9.6454679006,-0.012522737383059314,-0.047036623341247176,-0.004734205596034618,-50.83308973984215,13.227126571178019,-103.6246711487869
1686918744,-0.5754738353000001,2.5890340532,9.6454679006,-0.012522737383059314,-0.047036623341247176,-0.004734205596034618,-50.84770534931307,12.96404560070155,-103.90236772873429
1686918744,-0.5778666579,2.5806591741,9.6562356023,-0.012675453692608817,-0.0478002048889947,-0.004886921905584123,-51.21309558608594,12.78865828705057,-103.34697456883953
1686918744,-0.5778666579,2.5806591741,9.6562356023,-0.012675453692608817,-0.0478002048889947,-0.004886921905584123,-51.12540192926045,12.510961707103185,-103.74159602455421
1686918744,-0.574277424,2.5890340532,9.6478607232,-0.012675453692608817,-0.04596760917440065,-0.004581489286485115,-50.993861444022215,12.832505115463313,-103.27389652148496
1686918744,-0.574277424,2.5890340532,9.6478607232,-0.012675453692608817,-0.04642575810304917,-0.004734205596034618,-50.51154633148202,13.197895352236188,-103.09850920783397
1686918744,-0.5682953675,2.5746771176,9.6514499571,-0.012828170002158322,-0.04642575810304917,-0.004734205596034618,-50.93539900613856,12.84712072493423,-103.47851505407775
1686918744,-0.5682953675,2.5746771176,9.6514499571,-0.012828170002158322,-0.04612032548395016,-0.005039638215133627,-50.76001169248757,12.934814381759718,-103.82928968137972
1686918744,-0.5778666579,2.5806591741,9.6562356023,-0.012828170002158322,-0.04612032548395016,-0.005039638215133627,-50.78924291142941,13.05173925752704,-103.87313650979246
1686918744,-0.5778666579,2.5806591741,9.6562356023,-0.012522737383059314,-0.04657847441259867,-0.004581489286485115,-50.80385852090033,12.686349020754164,-103.434668225665
1686918745,-0.5706881900999999,2.5902304645,9.6622176588,-0.012522737383059314,-0.04657847441259867,-0.004581489286485115,-51.25694241449869,12.78865828705057,-103.46389944460684
1686918745,-0.5706881900999999,2.5902304645,9.6502535458,-0.012370021073509811,-0.047189339650796684,-0.004276056667386108,-50.73078047354574,13.270973399590764,-103.68313358667056
1686918745,-0.574277424,2.5914268758000003,9.6502535458,-0.012370021073509811,-0.047189339650796684,-0.004276056667386108,-51.24232680502777,12.978661210172465,-103.88775211926338
1686918745,-0.574277424,2.5854448193,9.6454679006,-0.01313360262125733,-0.04673119072214818,-0.004428772976935611,-51.19847997661503,12.496346097632271,-103.81467407190881
1686918745,-0.574277424,2.5854448193,9.6454679006,-0.01313360262125733,-0.04673119072214818,-0.004428772976935611,-50.65770242619118,12.774042677579656,-103.59543992984509
1686918745,-0.574277424,2.5890340532,9.6574320136,-0.013286318930806833,-0.04642575810304917,-0.004734205596034618,-50.920783396667645,13.139432914352527,-103.56620871090325
1686918745,-0.574277424,2.5890340532,9.6574320136,-0.013286318930806833,-0.04642575810304917,-0.004734205596034618,-51.08155510084771,12.96404560070155,-103.55159310143233
1686918745,-0.574277424,2.5842484079999997,9.6562356023,-0.012980886311707827,-0.04612032548395016,-0.004581489286485115,-50.686933645133,13.037123648056124,-104.13621748026894
1686918745,-0.574277424,2.5842484079999997,9.6562356023,-0.012980886311707827,-0.04612032548395016,-0.004581489286485115,-50.93539900613856,12.423268050277697,-103.34697456883953
1686918745,-0.5802594805,2.5746771176,9.6562356023,-0.012980886311707827,-0.04627304179349966,-0.004734205596034618,-51.43232972814966,12.861736334405144,-104.16544869921076
1686918745,-0.5802594805,2.5746771176,9.6562356023,-0.012980886311707827,-0.04627304179349966,-0.004734205596034618,-51.373867290266006,12.510961707103185,-104.54545454545455
1686918745,-0.5694917788,2.5782663514999995,9.6574320136,-0.012522737383059314,-0.04657847441259867,-0.004581489286485115,-51.15463314820228,12.277111955568547,-103.23004969307219
1686918745,-0.5694917788,2.5782663514999995,9.6574320136,-0.012522737383059314,-0.04657847441259867,-0.004581489286485115,-51.08155510084771,12.67173341128325,-103.50774627301958
1686918745,-0.5766702466,2.5890340532,9.6574320136,-0.012828170002158322,-0.04657847441259867,-0.005039638215133627,-51.373867290266006,12.642502192341421,-102.87927506577023
1686918745,-0.5766702466,2.5890340532,9.6574320136,-0.012828170002158322,-0.04657847441259867,-0.005039638215133627,-50.891552177725806,12.774042677579656,-103.30312774042679
1686918745,-0.5754738353000001,2.5830519966999996,9.6562356023,-0.01313360262125733,-0.04520402762665313,-0.004276056667386108,-50.950014615609476,12.510961707103185,-103.96083016661794
1686918745,-0.5754738353000001,2.5830519966999996,9.6562356023,-0.01313360262125733,-0.04520402762665313,-0.004276056667386108,-50.993861444022215,13.154048523823445,-103.37620578778134
1686918745,-0.5802594805,2.5854448193,9.6622176588,-0.012675453692608817,-0.04627304179349966,-0.005039638215133627,-50.84770534931307,12.87635194387606,-102.99619994153757
1686918745,-0.5802594805,2.5854448193,9.6622176588,-0.012675453692608817,-0.04627304179349966,-0.005039638215133627,-51.417714118678745,12.978661210172465,-103.55159310143233
1686918745,-0.5730810127,2.5854448193,9.6586284249,-0.013286318930806833,-0.04550946024575214,-0.004734205596034618,-51.140017538731364,12.978661210172465,-103.23004969307219
1686918745,-0.5730810127,2.5854448193,9.6586284249,-0.013286318930806833,-0.04550946024575214,-0.004734205596034618,-50.73078047354574,12.467114878690442,-103.97544577608886
1686918745,-0.574277424,2.5818555854,9.661021247499999,-0.012980886311707827,-0.04627304179349966,-0.004581489286485115,-51.49079216603333,12.96404560070155,-103.97544577608886
1686918745,-0.574277424,2.5818555854,9.661021247499999,-0.012980886311707827,-0.04627304179349966,-0.004581489286485115,-51.037708272434955,12.510961707103185,-103.63928675825782
1686918745,-0.5706881900999999,2.5782663514999995,9.6538427797,-0.012980886311707827,-0.047342055960346185,-0.00519235452468313,-50.90616778719672,12.759427068108739,-103.17158725518854
1686918745,-0.5706881900999999,2.5782663514999995,9.6538427797,-0.012980886311707827,-0.047342055960346185,-0.00519235452468313,-51.096170710318624,12.978661210172465,-103.46389944460684
1686918745,-0.5778666579,2.5854448193,9.665806892700001,-0.012980886311707827,-0.04657847441259867,-0.00519235452468313,-51.037708272434955,13.066354866997953,-103.15697164571762
1686918745,-0.5778666579,2.5854448193,9.665806892700001,-0.012980886311707827,-0.04657847441259867,-0.004581489286485115,-51.81233557439345,13.037123648056124,-103.434668225665
1686918745,-0.5778666579,2.5830519966999996,9.6622176588,-0.012522737383059314,-0.04657847441259867,-0.004581489286485115,-51.12540192926045,12.61327097339959,-103.0254311604794
1686918745,-0.5778666579,2.5830519966999996,9.6622176588,-0.012828170002158322,-0.04627304179349966,-0.004581489286485115,-51.57848582285881,13.02250803858521,-103.18620286465945
1686918745,-0.5790630692000001,2.5806591741,9.646664311899999,-0.012828170002158322,-0.04627304179349966,-0.004581489286485115,-51.30078924291143,12.84712072493423,-104.5016077170418
1686918745,-0.5790630692000001,2.5806591741,9.646664311899999,-0.012675453692608817,-0.046883907031697675,-0.004581489286485115,-50.920783396667645,13.183279742765272,-103.55159310143233
1686918745,-0.5659025448999999,2.5902304645,9.6502535458,-0.012675453692608817,-0.046883907031697675,-0.004581489286485115,-50.891552177725806,12.90558316281789,-103.7269804150833
1686918745,-0.5659025448999999,2.5902304645,9.6454679006,-0.012675453692608817,-0.047189339650796684,-0.004581489286485115,-51.037708272434955,12.87635194387606,-103.434668225665
1686918745,-0.5754738353000001,2.5818555854,9.6454679006,-0.012675453692608817,-0.047189339650796684,-0.004581489286485115,-50.73078047354574,12.686349020754164,-103.25928091201403
1686918745,-0.5778666579,2.5818555854,9.6478607232,-0.012370021073509811,-0.047647488579445195,-0.004734205596034618,-51.446945337620576,12.8178895059924,-104.3116047939199
1686918745,-0.5778666579,2.5818555854,9.6478607232,-0.012370021073509811,-0.047647488579445195,-0.004734205596034618,-50.950014615609476,13.25635779011985,-104.26775796550716
1686918745,-0.5730810127,2.5818555854,9.6622176588,-0.012980886311707827,-0.04627304179349966,-0.004734205596034618,-51.19847997661503,12.642502192341421,-103.49313066354865
1686918745,-0.5730810127,2.5818555854,9.6622176588,-0.012980886311707827,-0.04627304179349966,-0.004734205596034618,-51.53463899444607,12.569424144986845,-103.85852090032155
1686918745,-0.5730810127,2.5818555854,9.6502535458,-0.01313360262125733,-0.04627304179349966,-0.004428772976935611,-50.84770534931307,12.978661210172465,-104.0192926045016
1686918745,-0.5730810127,2.5818555854,9.6502535458,-0.01313360262125733,-0.04627304179349966,-0.004428772976935611,-50.80385852090033,12.700964630225082,-102.95235311312483
1686918745,-0.5706881900999999,2.5830519966999996,9.6514499571,-0.012828170002158322,-0.04627304179349966,-0.00519235452468313,-50.70154925460392,12.803273896521485,-103.68313358667056
1686918745,-0.5706881900999999,2.5830519966999996,9.6514499571,-0.012828170002158322,-0.04627304179349966,-0.00519235452468313,-51.24232680502777,13.08097047646887,-103.37620578778134
1686918745,-0.5802594805,2.5854448193,9.6502535458,-0.012675453692608817,-0.047189339650796684,-0.005345070834232635,-51.31540485238234,13.05173925752704,-103.24466530254313
1686918745,-0.5802594805,2.5854448193,9.6502535458,-0.012675453692608817,-0.047189339650796684,-0.005345070834232635,-51.21309558608594,12.890967553346973,-102.87927506577023
1686918745,-0.5790630692000001,2.5878376418999998,9.6490571345,-0.012828170002158322,-0.048258353817643214,-0.004734205596034618,-51.24232680502777,13.446360713241742,-103.05466237942123
1686918745,-0.5790630692000001,2.5878376418999998,9.6490571345,-0.012828170002158322,-0.048258353817643214,-0.004734205596034618,-51.446945337620576,13.665594855305466,-103.80005846243789
1686918745,-0.5754738353000001,2.5842484079999997,9.643075077999999,-0.012980886311707827,-0.04657847441259867,-0.004734205596034618,-50.80385852090033,13.387898275358081,-103.63928675825782
1686918745,-0.5754738353000001,2.5842484079999997,9.643075077999999,-0.012980886311707827,-0.04657847441259867,-0.004734205596034618,-51.53463899444607,12.8178895059924,-103.50774627301958
1686918745,-0.5706881900999999,2.5866412306,9.6478607232,-0.01313360262125733,-0.046883907031697675,-0.00519235452468313,-50.87693656825489,13.154048523823445,-103.04004676995031
1686918745,-0.5706881900999999,2.5866412306,9.6478607232,-0.01313360262125733,-0.046883907031697675,-0.00519235452468313,-51.12540192926045,12.78865828705057,-103.3323589593686
1686918745,-0.5778666579,2.5818555854,9.655039191,-0.01313360262125733,-0.04642575810304917,-0.004886921905584123,-50.65770242619118,12.715580239695996,-103.11312481730488
1686918745,-0.5778666579,2.5818555854,9.655039191,-0.01313360262125733,-0.04642575810304917,-0.004886921905584123,-51.21309558608594,12.96404560070155,-103.08389359836305
1686918745,-0.5754738353000001,2.5890340532,9.655039191,-0.012828170002158322,-0.04581489286485115,-0.005039638215133627,-51.2715580239696,12.96404560070155,-103.59543992984509
1686918745,-0.5754738353000001,2.5890340532,9.655039191,-0.012828170002158322,-0.04581489286485115,-0.005039638215133627,-50.87693656825489,13.05173925752704,-103.88775211926338
1686918745,-0.5718846014,2.5794627628,9.6538427797,-0.012675453692608817,-0.047494772269895694,-0.004886921905584123,-50.86232095878398,13.329435837474424,-104.3262204033908
1686918745,-0.5718846014,2.5794627628,9.6538427797,-0.012675453692608817,-0.047494772269895694,-0.004886921905584123,-51.15463314820228,13.007892429114293,-103.56620871090325
1686918745,-0.5706881900999999,2.5794627628,9.6490571345,-0.012522737383059314,-0.047189339650796684,-0.004734205596034618,-51.49079216603333,13.139432914352527,-103.23004969307219
1686918745,-0.5706881900999999,2.5794627628,9.6490571345,-0.012522737383059314,-0.047189339650796684,-0.004734205596034618,-51.34463607132418,12.861736334405144,-103.7269804150833
1686918745,-0.5730810127,2.5794627628,9.655039191,-0.012675453692608817,-0.04673119072214818,-0.004581489286485115,-50.9792458345513,12.934814381759718,-103.85852090032155
1686918745,-0.5730810127,2.5794627628,9.655039191,-0.012675453692608817,-0.047647488579445195,-0.004581489286485115,-50.52616194095294,13.05173925752704,-103.49313066354865
1686918745,-0.5730810127,2.5842484079999997,9.6586284249,-0.012828170002158322,-0.047647488579445195,-0.004581489286485115,-50.950014615609476,13.08097047646887,-103.7269804150833
1686918745,-0.5730810127,2.5842484079999997,9.6586284249,-0.012828170002158322,-0.04657847441259867,-0.004428772976935611,-50.964630225080384,12.890967553346973,-103.84390529085064
1686918745,-0.5802594805,2.5830519966999996,9.6442714893,-0.012828170002158322,-0.04657847441259867,-0.004428772976935611,-51.21309558608594,12.233265127155803,-103.74159602455421
1686918745,-0.5802594805,2.5830519966999996,9.6442714893,-0.012980886311707827,-0.045356743936202634,-0.004276056667386108,-50.920783396667645,12.394036831335868,-103.63928675825782
1686918745,-0.5754738353000001,2.5842484079999997,9.6538427797,-0.012980886311707827,-0.045356743936202634,-0.004276056667386108,-51.34463607132418,12.525577316574102,-103.47851505407775
1686918745,-0.5754738353000001,2.5842484079999997,9.6538427797,-0.013286318930806833,-0.04596760917440065,-0.004734205596034618,-51.096170710318624,12.861736334405144,-103.34697456883953
1686918745,-0.5850451257,2.5866412306,9.6442714893,-0.013286318930806833,-0.04596760917440065,-0.004734205596034618,-50.9792458345513,12.78865828705057,-103.74159602455421
1686918745,-0.5754738353000001,2.5818555854,9.655039191,-0.012980886311707827,-0.046883907031697675,-0.004734205596034618,-50.950014615609476,12.262496346097631,-103.52236188249051
1686918745,-0.5754738353000001,2.5818555854,9.655039191,-0.012980886311707827,-0.046883907031697675,-0.004734205596034618,-51.02309266296404,12.774042677579656,-103.59543992984509
1686918745,-0.5802594805,2.5830519966999996,9.6502535458,-0.013286318930806833,-0.04596760917440065,-0.004428772976935611,-51.21309558608594,12.84712072493423,-103.610055539316
1686918745,-0.5802594805,2.5830519966999996,9.6502535458,-0.013286318930806833,-0.04596760917440065,-0.004428772976935611,-51.30078924291143,12.8178895059924,-103.77082724349604
1686918745,-0.5754738353000001,2.5890340532,9.6502535458,-0.01313360262125733,-0.04627304179349966,-0.0039706240482871,-50.818474130371236,12.408652440806781,-104.09237065185619
1686918745,-0.5754738353000001,2.5890340532,9.6502535458,-0.01313360262125733,-0.04627304179349966,-0.0039706240482871,-51.6661794796843,12.774042677579656,-104.09237065185619
1686918745,-0.5766702466,2.5842484079999997,9.6514499571,-0.012675453692608817,-0.04505131131710363,-0.004123340357836604,-50.950014615609476,12.832505115463313,-103.610055539316
1686918745,-0.5766702466,2.5842484079999997,9.6514499571,-0.012675453692608817,-0.04505131131710363,-0.004123340357836604,-50.74539608301666,12.35019000292312,-103.7123648056124
1686918745,-0.5790630692000001,2.5866412306,9.6490571345,-0.013286318930806833,-0.04627304179349966,-0.004581489286485115,-51.476176556562415,12.379421221864952,-103.52236188249051
1686918745,-0.5790630692000001,2.5866412306,9.6490571345,-0.013286318930806833,-0.04627304179349966,-0.004581489286485115,-51.22771119555686,12.233265127155803,-103.15697164571762
1686918745,-0.5754738353000001,2.5890340532,9.6406822554,-0.012828170002158322,-0.04673119072214818,-0.004734205596034618,-51.19847997661503,12.84712072493423,-103.56620871090325
1686918745,-0.5754738353000001,2.5890340532,9.6406822554,-0.012828170002158322,-0.04673119072214818,-0.004734205596034618,-51.06693949137679,12.978661210172465,-103.12774042677579
1686918745,-0.5790630692000001,2.5746771176,9.6478607232,-0.013286318930806833,-0.04856378643674222,-0.00519235452468313,-50.84770534931307,12.554808535515932,-102.80619701841567
1686918745,-0.5790630692000001,2.5746771176,9.6478607232,-0.013286318930806833,-0.04856378643674222,-0.00519235452468313,-51.15463314820228,12.759427068108739,-103.27389652148496
1686918745,-0.5886343596,2.5782663514999995,9.6562356023,-0.012675453692608817,-0.04627304179349966,-0.004276056667386108,-50.818474130371236,12.61327097339959,-103.37620578778134
1686918745,-0.5886343596,2.5782663514999995,9.6562356023,-0.012675453692608817,-0.04627304179349966,-0.004276056667386108,-51.02309266296404,12.510961707103185,-103.3323589593686
1686918745,-0.5754738353000001,2.5794627628,9.6502535458,-0.012828170002158322,-0.046883907031697675,-0.004428772976935611,-51.08155510084771,12.554808535515932,-103.56620871090325
1686918745,-0.5754738353000001,2.5794627628,9.6502535458,-0.012828170002158322,-0.046883907031697675,-0.004428772976935611,-51.2715580239696,12.774042677579656,-103.66851797719964
1686918745,-0.5730810127,2.5794627628,9.6526463684,-0.012828170002158322,-0.04673119072214818,-0.004428772976935611,-50.80385852090033,12.920198772288805,-103.63928675825782
1686918745,-0.5730810127,2.5794627628,9.6526463684,-0.012828170002158322,-0.04673119072214818,-0.004428772976935611,-50.93539900613856,12.686349020754164,-103.78544285296695
1686918745,-0.574277424,2.5806591741,9.6490571345,-0.012675453692608817,-0.047647488579445195,-0.004581489286485115,-50.87693656825489,12.96404560070155,-103.11312481730488
1686918745,-0.574277424,2.5806591741,9.6490571345,-0.012675453692608817,-0.047647488579445195,-0.004581489286485115,-51.1838643671441,12.715580239695996,-103.66851797719964
1686918745,-0.5790630692000001,2.5842484079999997,9.6454679006,-0.012522737383059314,-0.04673119072214818,-0.005039638215133627,-51.38848289973692,12.934814381759718,-103.87313650979246
1686918745,-0.5790630692000001,2.5842484079999997,9.6454679006,-0.012522737383059314,-0.04627304179349966,-0.004734205596034618,-51.12540192926045,12.61327097339959,-103.7269804150833
1686918745,-0.574277424,2.5914268758000003,9.6406822554,-0.012828170002158322,-0.04627304179349966,-0.004734205596034618,-51.1838643671441,13.037123648056124,-103.87313650979246
1686918745,-0.574277424,2.5914268758000003,9.6406822554,-0.012980886311707827,-0.04657847441259867,-0.004581489286485115,-51.00847705349313,12.204033908213972,-103.28851213095587
1686918745,-0.5730810127,2.5842484079999997,9.6490571345,-0.012980886311707827,-0.04657847441259867,-0.004581489286485115,-50.716164864074834,12.379421221864952,-104.37006723180357
1686918745,-0.5730810127,2.5842484079999997,9.6490571345,-0.012980886311707827,-0.04642575810304917,-0.004581489286485115,-51.11078631978954,12.35019000292312,-103.93159894767612
1686918745,-0.5706881900999999,2.5854448193,9.661021247499999,-0.012980886311707827,-0.04642575810304917,-0.004581489286485115,-50.613855597778425,12.715580239695996,-104.25314235603625
1686918745,-0.5706881900999999,2.5854448193,9.643075077999999,-0.012522737383059314,-0.046883907031697675,-0.00519235452468313,-51.417714118678745,12.35019000292312,-104.13621748026894
1686918746,-0.5766702466,2.5842484079999997,9.643075077999999,-0.012522737383059314,-0.046883907031697675,-0.00519235452468313,-51.1838643671441,12.262496346097631,-103.37620578778134
1686918746,-0.5718846014,2.5842484079999997,9.6562356023,-0.012828170002158322,-0.04657847441259867,-0.004581489286485115,-51.31540485238234,12.84712072493423,-104.07775504238528
1686918746,-0.5718846014,2.5842484079999997,9.6562356023,-0.012828170002158322,-0.04657847441259867,-0.004581489286485115,-50.891552177725806,12.949429991230636,-103.97544577608886
1686918746,-0.574277424,2.5866412306,9.6394858441,-0.012675453692608817,-0.04642575810304917,-0.004428772976935611,-51.31540485238234,13.08097047646887,-104.23852674656533
1686918746,-0.574277424,2.5866412306,9.6394858441,-0.012675453692608817,-0.04642575810304917,-0.004428772976935611,-51.373867290266006,12.408652440806781,-103.94621455714703
1686918746,-0.5826523031,2.5854448193,9.6442714893,-0.012675453692608817,-0.046883907031697675,-0.00519235452468313,-51.25694241449869,12.774042677579656,-103.7123648056124
1686918746,-0.5826523031,2.5854448193,9.6442714893,-0.012675453692608817,-0.046883907031697675,-0.00519235452468313,-51.02309266296404,12.525577316574102,-103.63928675825782
1686918746,-0.5754738353000001,2.5890340532,9.646664311899999,-0.012828170002158322,-0.047189339650796684,-0.005650503453331642,-50.964630225080384,12.715580239695996,-103.53697749196142
1686918746,-0.5754738353000001,2.5890340532,9.646664311899999,-0.012828170002158322,-0.047189339650796684,-0.005650503453331642,-51.49079216603333,12.87635194387606,-104.09237065185619
1686918746,-0.5790630692000001,2.5878376418999998,9.6478607232,-0.012980886311707827,-0.04657847441259867,-0.005039638215133627,-51.31540485238234,12.116340251388483,-104.10698626132711
1686918746,-0.5790630692000001,2.5878376418999998,9.6478607232,-0.012980886311707827,-0.04657847441259867,-0.005039638215133627,-50.90616778719672,12.364805612394036,-103.34697456883953
1686918746,-0.5754738353000001,2.5770699402,9.6586284249,-0.01313360262125733,-0.04627304179349966,-0.004734205596034618,-50.438468284127445,12.335574393452207,-103.56620871090325
1686918746,-0.5754738353000001,2.5770699402,9.6586284249,-0.01313360262125733,-0.04627304179349966,-0.004734205596034618,-50.993861444022215,12.510961707103185,-104.26775796550716
1686918746,-0.5754738353000001,2.572284295,9.6574320136,-0.012828170002158322,-0.04642575810304917,-0.004428772976935611,-51.037708272434955,12.467114878690442,-103.68313358667056
1686918746,-0.5754738353000001,2.572284295,9.6574320136,-0.012828170002158322,-0.04642575810304917,-0.004428772976935611,-50.74539608301666,12.306343174510378,-103.80005846243789
1686918746,-0.5694917788,2.5782663514999995,9.6490571345,-0.012675453692608817,-0.04657847441259867,-0.004428772976935611,-51.22771119555686,12.174802689272141,-104.19467991815259
1686918746,-0.5694917788,2.5782663514999995,9.6490571345,-0.012675453692608817,-0.04657847441259867,-0.004428772976935611,-50.686933645133,12.320958783981292,-102.93773750365389
1686918746,-0.5802594805,2.5890340532,9.6574320136,-0.012828170002158322,-0.047342055960346185,-0.005039638215133627,-50.964630225080384,12.394036831335868,-103.37620578778134
1686918746,-0.5802594805,2.5890340532,9.6574320136,-0.012828170002158322,-0.047342055960346185,-0.005039638215133627,-50.993861444022215,12.233265127155803,-102.55773165741012
1686918746,-0.5730810127,2.5878376418999998,9.6526463684,-0.012522737383059314,-0.04657847441259867,-0.004886921905584123,-50.74539608301666,12.61327097339959,-104.09237065185619
1686918746,-0.5730810127,2.5878376418999998,9.6526463684,-0.012522737383059314,-0.04657847441259867,-0.004886921905584123,-50.950014615609476,12.715580239695996,-103.82928968137972
1686918746,-0.5850451257,2.5842484079999997,9.646664311899999,-0.012980886311707827,-0.047494772269895694,-0.00519235452468313,-50.2923121894183,12.642502192341421,-103.28851213095587
1686918746,-0.5850451257,2.5842484079999997,9.646664311899999,-0.012980886311707827,-0.047494772269895694,-0.00519235452468313,-50.74539608301666,12.569424144986845,-103.7123648056124
1686918746,-0.574277424,2.5842484079999997,9.6562356023,-0.012828170002158322,-0.047647488579445195,-0.00519235452468313,-50.42385267465653,12.642502192341421,-103.434668225665
1686918746,-0.574277424,2.5842484079999997,9.6562356023,-0.012828170002158322,-0.047647488579445195,-0.00519235452468313,-50.920783396667645,12.510961707103185,-103.85852090032155
1686918746,-0.5802594805,2.5770699402,9.6526463684,-0.012980886311707827,-0.046883907031697675,-0.005345070834232635,-50.86232095878398,12.920198772288805,-104.22391113709442
1686918746,-0.5802594805,2.5770699402,9.6526463684,-0.013286318930806833,-0.045356743936202634,-0.004276056667386108,-50.87693656825489,12.978661210172465,-104.06313943291434
1686918746,-0.5718846014,2.5710878837,9.6502535458,-0.013286318930806833,-0.045356743936202634,-0.004276056667386108,-50.78924291142941,12.174802689272141,-103.90236772873429
1686918746,-0.5718846014,2.5710878837,9.6502535458,-0.012980886311707827,-0.04673119072214818,-0.004276056667386108,-51.40309850920784,12.934814381759718,-103.74159602455421
1686918746,-0.5778666579,2.5782663514999995,9.6514499571,-0.012980886311707827,-0.04673119072214818,-0.004276056667386108,-50.83308973984215,12.78865828705057,-105.07161648640748
1686918746,-0.5778666579,2.5782663514999995,9.6514499571,-0.012828170002158322,-0.04612032548395016,-0.004123340357836604,-50.9792458345513,12.569424144986845,-103.63928675825782
1686918746,-0.5814558918,2.5842484079999997,9.655039191,-0.012828170002158322,-0.04612032548395016,-0.004123340357836604,-51.31540485238234,12.423268050277697,-104.07775504238528
1686918746,-0.5814558918,2.5842484079999997,9.655039191,-0.012370021073509811,-0.047189339650796684,-0.004886921905584123,-50.9792458345513,12.715580239695996,-104.25314235603625
1686918746,-0.5790630692000001,2.5878376418999998,9.6478607232,-0.012370021073509811,-0.047189339650796684,-0.004886921905584123,-50.73078047354574,12.291727565039462,-103.30312774042679
1686918746,-0.5682953675,2.5806591741,9.6514499571,-0.012828170002158322,-0.04596760917440065,-0.004886921905584123,-50.613855597778425,12.306343174510378,-103.53697749196142
1686918746,-0.5682953675,2.5806591741,9.6514499571,-0.012828170002158322,-0.04596760917440065,-0.004886921905584123,-50.83308973984215,12.320958783981292,-104.28237357497807
1686918746,-0.5850451257,2.5866412306,9.6478607232,-0.012828170002158322,-0.04596760917440065,-0.004886921905584123,-50.950014615609476,12.61327097339959,-103.80005846243789
1686918746,-0.5850451257,2.5866412306,9.6478607232,-0.012828170002158322,-0.04596760917440065,-0.004886921905584123,-50.920783396667645,12.8178895059924,-103.3323589593686
1686918746,-0.5814558918,2.5806591741,9.655039191,-0.012828170002158322,-0.04627304179349966,-0.005345070834232635,-50.78924291142941,12.452499269219526,-103.87313650979246
1686918746,-0.5814558918,2.5806591741,9.655039191,-0.012828170002158322,-0.04627304179349966,-0.005345070834232635,-50.570008769365685,12.598655363928676,-102.67465653317744
1686918746,-0.5802594805,2.5782663514999995,9.6514499571,-0.012980886311707827,-0.047189339650796684,-0.005497787143782138,-51.16924875767319,13.08097047646887,-103.59543992984509
1686918746,-0.5802594805,2.5782663514999995,9.6514499571,-0.012980886311707827,-0.047189339650796684,-0.005497787143782138,-50.83308973984215,12.774042677579656,-103.44928383513592
1686918746,-0.5754738353000001,2.5818555854,9.6562356023,-0.01313360262125733,-0.04612032548395016,-0.004428772976935611,-51.22771119555686,12.90558316281789,-104.3116047939199
1686918746,-0.5754738353000001,2.5818555854,9.6562356023,-0.01313360262125733,-0.04612032548395016,-0.004428772976935611,-51.34463607132418,12.700964630225082,-104.09237065185619
1686918746,-0.5730810127,2.5818555854,9.655039191,-0.012980886311707827,-0.04642575810304917,-0.004581489286485115,-50.9792458345513,13.05173925752704,-104.34083601286173
1686918746,-0.5730810127,2.5818555854,9.655039191,-0.012980886311707827,-0.04642575810304917,-0.004581489286485115,-50.716164864074834,12.277111955568547,-103.97544577608886
1686918746,-0.5790630692000001,2.5854448193,9.6514499571,-0.012370021073509811,-0.047189339650796684,-0.004581489286485115,-51.53463899444607,12.759427068108739,-104.3116047939199
1686918746,-0.5790630692000001,2.5854448193,9.6514499571,-0.012370021073509811,-0.047189339650796684,-0.004581489286485115,-50.774627301958496,12.467114878690442,-104.51622332651272
1686918746,-0.5766702466,2.5902304645,9.655039191,-0.012675453692608817,-0.04673119072214818,-0.004581489286485115,-51.49079216603333,12.730195849166911,-103.82928968137972
1686918746,-0.5766702466,2.5902304645,9.655039191,-0.012675453692608817,-0.04673119072214818,-0.004581489286485115,-51.695410698626134,12.379421221864952,-104.34083601286173
1686918746,-0.5790630692000001,2.5842484079999997,9.6514499571,-0.012828170002158322,-0.04627304179349966,-0.00519235452468313,-51.28617363344051,12.204033908213972,-103.97544577608886
1686918746,-0.5790630692000001,2.5842484079999997,9.6514499571,-0.012828170002158322,-0.04627304179349966,-0.00519235452468313,-51.00847705349313,12.525577316574102,-104.28237357497807
1686918746,-0.5778666579,2.5782663514999995,9.6526463684,-0.012675453692608817,-0.04673119072214818,-0.00519235452468313,-50.774627301958496,12.569424144986845,-103.99006138555977
1686918746,-0.5778666579,2.5782663514999995,9.6526463684,-0.012675453692608817,-0.04673119072214818,-0.00519235452468313,-50.716164864074834,12.204033908213972,-104.99853843905291
1686918746,-0.5754738353000001,2.5758735289,9.6538427797,-0.012675453692608817,-0.046883907031697675,-0.005345070834232635,-51.24232680502777,12.700964630225082,-103.74159602455421
1686918746,-0.5754738353000001,2.5758735289,9.6538427797,-0.012675453692608817,-0.046883907031697675,-0.005345070834232635,-50.950014615609476,12.598655363928676,-103.65390236772873
1686918746,-0.5754738353000001,2.5818555854,9.655039191,-0.012675453692608817,-0.047952921198544204,-0.004734205596034618,-50.584624378836594,12.730195849166911,-103.68313358667056
1686918746,-0.5754738353000001,2.5818555854,9.655039191,-0.012522737383059314,-0.04642575810304917,-0.004581489286485115,-51.25694241449869,12.774042677579656,-104.23852674656533
1686918746,-0.5778666579,2.5794627628,9.6526463684,-0.012522737383059314,-0.04642575810304917,-0.004581489286485115,-50.993861444022215,12.554808535515932,-103.80005846243789
1686918746,-0.5778666579,2.5794627628,9.6526463684,-0.012828170002158322,-0.04642575810304917,-0.004428772976935611,-51.417714118678745,12.554808535515932,-104.28237357497807
1686918746,-0.5778666579,2.5866412306,9.655039191,-0.012828170002158322,-0.04642575810304917,-0.004428772976935611,-51.24232680502777,12.510961707103185,-103.99006138555977
1686918746,-0.5778666579,2.5866412306,9.655039191,-0.012828170002158322,-0.047036623341247176,-0.004428772976935611,-50.55539315989477,12.262496346097631,-104.07775504238528
1686918746,-0.5790630692000001,2.5878376418999998,9.6538427797,-0.012828170002158322,-0.047036623341247176,-0.004428772976935611,-51.25694241449869,12.949429991230636,-103.68313358667056
1686918746,-0.5790630692000001,2.5878376418999998,9.6538427797,-0.012675453692608817,-0.04642575810304917,-0.004734205596034618,-51.037708272434955,13.02250803858521,-103.55159310143233
1686918746,-0.5790630692000001,2.5854448193,9.6574320136,-0.012675453692608817,-0.04642575810304917,-0.004734205596034618,-51.11078631978954,12.832505115463313,-103.14235603624671
1686918746,-0.5826523031,2.5854448193,9.646664311899999,-0.012522737383059314,-0.045662176555301644,-0.0039706240482871,-51.84156679333528,12.525577316574102,-104.0192926045016
1686918746,-0.5826523031,2.5854448193,9.646664311899999,-0.012522737383059314,-0.045662176555301644,-0.0039706240482871,-51.50540777550424,12.43788365974861,-103.69774919614147
1686918746,-0.5730810127,2.5806591741,9.6586284249,-0.012522737383059314,-0.047647488579445195,-0.004886921905584123,-51.08155510084771,12.218649517684888,-104.16544869921076
1686918746,-0.5730810127,2.5806591741,9.6586284249,-0.012522737383059314,-0.047647488579445195,-0.004886921905584123,-51.19847997661503,12.8178895059924,-103.93159894767612
1686918746,-0.5814558918,2.5830519966999996,9.6514499571,-0.012522737383059314,-0.047342055960346185,-0.004123340357836604,-51.05232388190587,12.642502192341421,-103.7123648056124
1686918746,-0.5814558918,2.5830519966999996,9.6514499571,-0.012522737383059314,-0.047342055960346185,-0.004123340357836604,-50.65770242619118,12.481730488161356,-104.10698626132711
1686918746,-0.5778666579,2.5770699402,9.6562356023,-0.012828170002158322,-0.04642575810304917,-0.005039638215133627,-50.774627301958496,12.291727565039462,-104.26775796550716
1686918746,-0.5778666579,2.5770699402,9.6562356023,-0.012828170002158322,-0.04642575810304917,-0.005039638215133627,-50.2923121894183,12.247880736626717,-103.88775211926338
1686918746,-0.5766702466,2.5758735289,9.6598248362,-0.012980886311707827,-0.047342055960346185,-0.005039638215133627,-50.55539315989477,12.247880736626717,-103.75621163402514
1686918746,-0.5766702466,2.5758735289,9.6598248362,-0.012980886311707827,-0.047342055960346185,-0.005039638215133627,-50.67231803566209,12.218649517684888,-103.34697456883953
1686918746,-0.5790630692000001,2.5734807063,9.6574320136,-0.012675453692608817,-0.047952921198544204,-0.004734205596034618,-50.84770534931307,12.87635194387606,-103.46389944460684
1686918746,-0.5790630692000001,2.5734807063,9.6574320136,-0.012675453692608817,-0.047952921198544204,-0.004734205596034618,-50.365390236772875,12.554808535515932,-103.96083016661794
1686918746,-0.5790630692000001,2.5794627628,9.661021247499999,-0.012675453692608817,-0.045662176555301644,-0.004123340357836604,-50.64308681672026,12.949429991230636,-103.78544285296695
1686918746,-0.5790630692000001,2.5794627628,9.661021247499999,-0.012675453692608817,-0.045662176555301644,-0.004123340357836604,-51.12540192926045,12.890967553346973,-104.91084478222741
1686918746,-0.5790630692000001,2.5854448193,9.6478607232,-0.012522737383059314,-0.04642575810304917,-0.004276056667386108,-50.993861444022215,12.67173341128325,-104.56007015492546
1686918746,-0.5790630692000001,2.5854448193,9.6478607232,-0.012522737383059314,-0.04642575810304917,-0.004276056667386108,-50.964630225080384,12.920198772288805,-103.56620871090325
1686918746,-0.5802594805,2.5866412306,9.6502535458,-0.012675453692608817,-0.04596760917440065,-0.003817907738737596,-50.59923998830751,12.78865828705057,-104.04852382344343
1686918746,-0.5802594805,2.5866412306,9.6502535458,-0.012675453692608817,-0.04596760917440065,-0.003817907738737596,-50.26308097047647,12.730195849166911,-104.47237649809998
1686918746,-0.5778666579,2.5890340532,9.6562356023,-0.012828170002158322,-0.04612032548395016,-0.004123340357836604,-50.774627301958496,12.78865828705057,-104.13621748026894
1686918746,-0.5778666579,2.5890340532,9.6562356023,-0.012828170002158322,-0.04612032548395016,-0.004123340357836604,-50.540777550423854,12.730195849166911,-104.35545162233267
1686918746,-0.5814558918,2.5866412306,9.6574320136,-0.012980886311707827,-0.04581489286485115,-0.004581489286485115,-50.964630225080384,13.183279742765272,-104.15083308973985
1686918746,-0.5814558918,2.5866412306,9.6574320136,-0.012980886311707827,-0.04581489286485115,-0.004581489286485115,-50.9792458345513,12.525577316574102,-103.81467407190881
1686918746,-0.5694917788,2.5830519966999996,9.6622176588,-0.012980886311707827,-0.04657847441259867,-0.004734205596034618,-50.87693656825489,12.320958783981292,-104.25314235603625
1686918746,-0.5694917788,2.5830519966999996,9.6622176588,-0.012980886311707827,-0.047342055960346185,-0.004276056667386108,-50.70154925460392,12.803273896521485,-104.25314235603625
1686918746,-0.5754738353000001,2.572284295,9.6598248362,-0.012828170002158322,-0.047342055960346185,-0.004276056667386108,-50.62847120724933,13.05173925752704,-103.44928383513592
1686918746,-0.5754738353000001,2.572284295,9.6598248362,-0.012828170002158322,-0.047036623341247176,-0.004428772976935611,-50.59923998830751,12.803273896521485,-103.58082432037416
1686918746,-0.5694917788,2.5830519966999996,9.6646104814,-0.012828170002158322,-0.047036623341247176,-0.004428772976935611,-50.394621455714706,12.90558316281789,-103.69774919614147
1686918746,-0.5694917788,2.5830519966999996,9.6646104814,-0.012522737383059314,-0.04612032548395016,-0.004581489286485115,-50.73078047354574,13.227126571178019,-104.28237357497807
1686918746,-0.5814558918,2.5794627628,9.655039191,-0.012522737383059314,-0.04612032548395016,-0.004581489286485115,-50.73078047354574,13.05173925752704,-103.24466530254313
1686918746,-0.5814558918,2.5794627628,9.655039191,-0.01313360262125733,-0.04550946024575214,-0.004581489286485115,-51.11078631978954,13.095586085939784,-103.59543992984509
1686918746,-0.5766702466,2.5914268758000003,9.6502535458,-0.01313360262125733,-0.04550946024575214,-0.004581489286485115,-51.02309266296404,12.657117801812333,-104.07775504238528
1686918747,-0.5814558918,2.5854448193,9.6538427797,-0.01313360262125733,-0.04581489286485115,-0.004886921905584123,-51.02309266296404,13.007892429114293,-103.93159894767612
1686918747,-0.5814558918,2.5854448193,9.6538427797,-0.01313360262125733,-0.04581489286485115,-0.004886921905584123,-50.9792458345513,13.285589009061678,-103.63928675825782
1686918747,-0.5790630692000001,2.5830519966999996,9.661021247499999,-0.01313360262125733,-0.047036623341247176,-0.004886921905584123,-50.9792458345513,13.212510961707103,-104.13621748026894
1686918747,-0.5790630692000001,2.5830519966999996,9.661021247499999,-0.01313360262125733,-0.047036623341247176,-0.004886921905584123,-51.00847705349313,12.96404560070155,-103.88775211926338
1686918747,-0.5778666579,2.5794627628,9.6598248362,-0.01313360262125733,-0.047189339650796684,-0.005497787143782138,-51.1838643671441,13.197895352236188,-103.97544577608886
1686918747,-0.5778666579,2.5794627628,9.6598248362,-0.01313360262125733,-0.047189339650796684,-0.005497787143782138,-50.950014615609476,12.78865828705057,-103.75621163402514
1686918747,-0.5766702466,2.5782663514999995,9.6562356023,-0.012828170002158322,-0.047342055960346185,-0.005803219762881146,-50.93539900613856,12.803273896521485,-105.02776965799474
1686918747,-0.5766702466,2.5782663514999995,9.6562356023,-0.012828170002158322,-0.047342055960346185,-0.005803219762881146,-50.90616778719672,12.832505115463313,-104.82315112540192
1686918747,-0.574277424,2.5770699402,9.661021247499999,-0.012522737383059314,-0.04810563750809371,-0.004734205596034618,-50.93539900613856,12.423268050277697,-104.53083893598362
1686918747,-0.574277424,2.5770699402,9.661021247499999,-0.012522737383059314,-0.04810563750809371,-0.004734205596034618,-50.65770242619118,12.525577316574102,-103.23004969307219
1686918747,-0.5706881900999999,2.5770699402,9.655039191,-0.012217304763960306,-0.047647488579445195,-0.004276056667386108,-50.993861444022215,12.744811458637825,-103.84390529085064
1686918747,-0.5706881900999999,2.5770699402,9.655039191,-0.012217304763960306,-0.047647488579445195,-0.004276056667386108,-50.64308681672026,12.861736334405144,-103.17158725518854
1686918747,-0.5766702466,2.5830519966999996,9.6526463684,-0.011911872144861299,-0.046883907031697675,-0.004276056667386108,-50.52616194095294,12.510961707103185,-103.34697456883953
1686918747,-0.5766702466,2.5830519966999996,9.6526463684,-0.011911872144861299,-0.046883907031697675,-0.004276056667386108,-50.482315112540185,12.686349020754164,-104.53083893598362
1686918747,-0.5790630692000001,2.5854448193,9.6478607232,-0.012675453692608817,-0.046883907031697675,-0.004276056667386108,-51.12540192926045,12.759427068108739,-103.85852090032155
1686918747,-0.5790630692000001,2.5854448193,9.6478607232,-0.012675453692608817,-0.046883907031697675,-0.004276056667386108,-50.27769657994738,13.066354866997953,-103.81467407190881
1686918747,-0.5718846014,2.5914268758000003,9.661021247499999,-0.01313360262125733,-0.04627304179349966,-0.004123340357836604,-50.891552177725806,12.43788365974861,-103.3177433498977
1686918747,-0.5718846014,2.5914268758000003,9.661021247499999,-0.01313360262125733,-0.04627304179349966,-0.004123340357836604,-50.716164864074834,13.037123648056124,-104.45776088862905
1686918747,-0.5814558918,2.5794627628,9.6526463684,-0.012828170002158322,-0.047494772269895694,-0.00519235452468313,-50.540777550423854,13.08097047646887,-103.88775211926338
1686918747,-0.5814558918,2.5794627628,9.6526463684,-0.012828170002158322,-0.047494772269895694,-0.00519235452468313,-50.52616194095294,13.02250803858521,-104.45776088862905
1686918747,-0.574277424,2.5794627628,9.6622176588,-0.012675453692608817,-0.0478002048889947,-0.005039638215133627,-50.496930722011115,12.949429991230636,-104.53083893598362
1686918747,-0.574277424,2.5794627628,9.6622176588,-0.012675453692608817,-0.0478002048889947,-0.005039638215133627,-50.613855597778425,13.066354866997953,-103.63928675825782
1686918747,-0.5754738353000001,2.5698914723999997,9.6538427797,-0.012828170002158322,-0.04642575810304917,-0.004581489286485115,-50.19000292312189,12.510961707103185,-104.41391406021631
1686918747,-0.5754738353000001,2.5698914723999997,9.6538427797,-0.012828170002158322,-0.04642575810304917,-0.004581489286485115,-50.13154048523823,12.642502192341421,-103.49313066354865
1686918747,-0.5814558918,2.5854448193,9.6562356023,-0.012828170002158322,-0.04596760917440065,-0.004123340357836604,-51.1838643671441,12.84712072493423,-103.88775211926338
1686918747,-0.5814558918,2.5854448193,9.6562356023,-0.012522737383059314,-0.04673119072214818,-0.004428772976935611,-50.964630225080384,12.58403975445776,-104.0192926045016
1686918747,-0.5694917788,2.5854448193,9.6586284249,-0.012522737383059314,-0.04673119072214818,-0.004428772976935611,-51.21309558608594,12.90558316281789,-103.53697749196142
1686918747,-0.5694917788,2.5854448193,9.6586284249,-0.012675453692608817,-0.04642575810304917,-0.004276056667386108,-51.08155510084771,12.700964630225082,-104.41391406021631
1686918747,-0.5790630692000001,2.5878376418999998,9.6514499571,-0.012675453692608817,-0.04642575810304917,-0.004276056667386108,-51.037708272434955,13.007892429114293,-104.22391113709442
1686918747,-0.5790630692000001,2.5878376418999998,9.6514499571,-0.012675453692608817,-0.046883907031697675,-0.004428772976935611,-51.24232680502777,12.96404560070155,-104.61853259280912
1686918747,-0.5778666579,2.5782663514999995,9.6562356023,-0.012675453692608817,-0.046883907031697675,-0.004428772976935611,-51.520023384975154,12.949429991230636,-105.2908506284712
1686918747,-0.5778666579,2.5782663514999995,9.6634140701,-0.012980886311707827,-0.046883907031697675,-0.005039638215133627,-50.84770534931307,12.379421221864952,-104.56007015492546
1686918747,-0.5814558918,2.5842484079999997,9.6634140701,-0.012980886311707827,-0.046883907031697675,-0.005039638215133627,-50.613855597778425,12.949429991230636,-104.94007600116926
1686918747,-0.5778666579,2.5710878837,9.6538427797,-0.012980886311707827,-0.04550946024575214,-0.004886921905584123,-50.482315112540185,12.978661210172465,-104.16544869921076
1686918747,-0.5778666579,2.5710878837,9.6538427797,-0.012980886311707827,-0.04550946024575214,-0.004886921905584123,-50.67231803566209,13.25635779011985,-103.81467407190881
1686918747,-0.5754738353000001,2.5770699402,9.6586284249,-0.012828170002158322,-0.04673119072214818,-0.004886921905584123,-50.70154925460392,12.759427068108739,-104.58930137386729
1686918747,-0.5754738353000001,2.5770699402,9.6586284249,-0.012828170002158322,-0.04673119072214818,-0.004886921905584123,-51.22771119555686,12.759427068108739,-104.94007600116926
1686918747,-0.5754738353000001,2.5866412306,9.6622176588,-0.012980886311707827,-0.046883907031697675,-0.004734205596034618,-51.11078631978954,12.78865828705057,-103.97544577608886
1686918747,-0.5754738353000001,2.5866412306,9.6622176588,-0.012980886311707827,-0.046883907031697675,-0.004734205596034618,-50.818474130371236,12.394036831335868,-104.18006430868168
1686918747,-0.5814558918,2.5830519966999996,9.6514499571,-0.012980886311707827,-0.047647488579445195,-0.004581489286485115,-50.540777550423854,12.730195849166911,-103.87313650979246
1686918747,-0.5814558918,2.5830519966999996,9.6514499571,-0.012980886311707827,-0.047647488579445195,-0.004581489286485115,-50.64308681672026,13.227126571178019,-104.18006430868168
1686918747,-0.5790630692000001,2.5878376418999998,9.6586284249,-0.012522737383059314,-0.04657847441259867,-0.004123340357836604,-50.686933645133,12.861736334405144,-104.18006430868168
1686918747,-0.5790630692000001,2.5878376418999998,9.6586284249,-0.012522737383059314,-0.04657847441259867,-0.004123340357836604,-51.22771119555686,12.744811458637825,-103.81467407190881
1686918747,-0.5826523031,2.5842484079999997,9.6562356023,-0.012980886311707827,-0.04673119072214818,-0.004886921905584123,-50.818474130371236,12.744811458637825,-103.65390236772873
1686918747,-0.5826523031,2.5842484079999997,9.6562356023,-0.012980886311707827,-0.04673119072214818,-0.004886921905584123,-50.964630225080384,12.61327097339959,-103.80005846243789
1686918747,-0.5754738353000001,2.5806591741,9.6490571345,-0.012980886311707827,-0.04612032548395016,-0.005497787143782138,-50.716164864074834,12.96404560070155,-103.75621163402514
1686918747,-0.5754738353000001,2.5806591741,9.6490571345,-0.012980886311707827,-0.04612032548395016,-0.005497787143782138,-50.78924291142941,12.291727565039462,-104.18006430868168
1686918747,-0.5874379483000001,2.5794627628,9.6526463684,-0.013286318930806833,-0.04657847441259867,-0.00519235452468313,-50.64308681672026,12.993276819643379,-104.3992984507454
1686918747,-0.5874379483000001,2.5794627628,9.6526463684,-0.013286318930806833,-0.04657847441259867,-0.00519235452468313,-50.62847120724933,12.78865828705057,-104.13621748026894
1686918747,-0.5730810127,2.5794627628,9.6622176588,-0.01313360262125733,-0.04871650274629172,-0.005039638215133627,-50.59923998830751,12.87635194387606,-104.29698918444899
1686918747,-0.5730810127,2.5794627628,9.6622176588,-0.01313360262125733,-0.04871650274629172,-0.005039638215133627,-50.33615901783104,13.241742180648933,-103.9169833382052
1686918747,-0.5766702466,2.5794627628,9.6538427797,-0.012828170002158322,-0.04673119072214818,-0.004276056667386108,-50.83308973984215,12.759427068108739,-104.3846828412745
1686918747,-0.5766702466,2.5794627628,9.6538427797,-0.012828170002158322,-0.04673119072214818,-0.004276056667386108,-50.62847120724933,12.525577316574102,-104.15083308973985
1686918747,-0.5730810127,2.5770699402,9.646664311899999,-0.012370021073509811,-0.04627304179349966,-0.004581489286485115,-51.096170710318624,12.379421221864952,-104.6916106401637
1686918747,-0.5730810127,2.5770699402,9.646664311899999,-0.012370021073509811,-0.045662176555301644,-0.005039638215133627,-50.73078047354574,12.642502192341421,-104.09237065185619
1686918747,-0.574277424,2.5854448193,9.6514499571,-0.012980886311707827,-0.045662176555301644,-0.005039638215133627,-50.07307804735458,12.84712072493423,-104.82315112540192
1686918747,-0.574277424,2.5854448193,9.6514499571,-0.012980886311707827,-0.04673119072214818,-0.004581489286485115,-50.686933645133,12.67173341128325,-104.29698918444899
1686918747,-0.5706881900999999,2.5854448193,9.6586284249,-0.012980886311707827,-0.04673119072214818,-0.004581489286485115,-50.59923998830751,12.978661210172465,-103.69774919614147
1686918747,-0.5706881900999999,2.5854448193,9.6586284249,-0.012675453692608817,-0.047342055960346185,-0.004581489286485115,-50.93539900613856,13.197895352236188,-103.50774627301958
1686918747,-0.5802594805,2.5878376418999998,9.6526463684,-0.012675453692608817,-0.047342055960346185,-0.004581489286485115,-50.950014615609476,12.700964630225082,-104.00467699503069
1686918747,-0.5802594805,2.5878376418999998,9.6574320136,-0.012980886311707827,-0.046883907031697675,-0.005039638215133627,-51.11078631978954,12.920198772288805,-104.09237065185619
1686918747,-0.5766702466,2.5890340532,9.6574320136,-0.012980886311707827,-0.046883907031697675,-0.005039638215133627,-50.51154633148202,13.300204618532593,-103.93159894767612
1686918747,-0.5754738353000001,2.5830519966999996,9.6502535458,-0.013439035240356337,-0.04627304179349966,-0.005345070834232635,-50.9792458345513,13.358667056416252,-103.30312774042679
1686918747,-0.5754738353000001,2.5830519966999996,9.6502535458,-0.013439035240356337,-0.04627304179349966,-0.005345070834232635,-50.482315112540185,13.154048523823445,-104.15083308973985
1686918747,-0.5730810127,2.5818555854,9.6598248362,-0.012980886311707827,-0.047342055960346185,-0.004886921905584123,-50.78924291142941,12.861736334405144,-104.00467699503069
1686918747,-0.5730810127,2.5818555854,9.6598248362,-0.012980886311707827,-0.047342055960346185,-0.004886921905584123,-50.496930722011115,13.066354866997953,-103.90236772873429
1686918747,-0.5754738353000001,2.5806591741,9.6622176588,-0.013286318930806833,-0.04627304179349966,-0.005039638215133627,-50.84770534931307,12.978661210172465,-103.90236772873429
1686918747,-0.5754738353000001,2.5806591741,9.6622176588,-0.013286318930806833,-0.04627304179349966,-0.005039638215133627,-50.84770534931307,13.154048523823445,-103.52236188249051
1686918747,-0.5706881900999999,2.5794627628,9.6574320136,-0.012828170002158322,-0.04550946024575214,-0.004428772976935611,-51.140017538731364,13.066354866997953,-103.74159602455421
1686918747,-0.5706881900999999,2.5794627628,9.6574320136,-0.012828170002158322,-0.04550946024575214,-0.004428772976935611,-50.686933645133,12.920198772288805,-103.46389944460684
1686918747,-0.5718846014,2.5866412306,9.6586284249,-0.012522737383059314,-0.04612032548395016,-0.004886921905584123,-51.08155510084771,12.759427068108739,-103.65390236772873
1686918747,-0.5718846014,2.5866412306,9.6586284249,-0.012522737383059314,-0.04612032548395016,-0.004886921905584123,-51.22771119555686,12.993276819643379,-103.97544577608886
1686918747,-0.574277424,2.5902304645,9.6514499571,-0.012675453692608817,-0.04657847441259867,-0.004581489286485115,-50.87693656825489,12.803273896521485,-103.69774919614147
1686918747,-0.574277424,2.5902304645,9.6514499571,-0.012675453692608817,-0.04657847441259867,-0.004581489286485115,-50.78924291142941,13.344051446945338,-104.12160187079802
1686918747,-0.5802594805,2.5854448193,9.6586284249,-0.012828170002158322,-0.04612032548395016,-0.004886921905584123,-50.84770534931307,13.095586085939784,-105.05700087693657
