time,seconds_elapsed,z,y,x
1675001275518780400,0.009780517578125,-0.9406585693359375,-0.0790252685546875,0.0432586669921875
1675001275528861400,0.019861328125,-0.9016876220703125,-0.08941650390625,0.079803466796875
1675001275538942500,0.0299423828125,-0.8764190673828125,-0.112762451171875,0.1089630126953125
1675001275549023500,0.0400234375,-0.889068603515625,-0.12579345703125,0.1319732666015625
1675001275559103500,0.050103515625,-0.902618408203125,-0.136688232421875,0.1328582763671875
1675001275569184500,0.0601845703125,-0.92388916015625,-0.1414337158203125,0.1370086669921875
1675001275579265300,0.070265380859375,-1.0164031982421875,-0.124786376953125,0.1424713134765625
1675001275589345500,0.080345458984375,-1.075958251953125,-0.1300048828125,0.049774169921875
1675001275599426600,0.090426513671875,-1.0886077880859375,-0.1020355224609375,0.0076446533203125
1675001275609507300,0.10050732421875,-1.1098785400390625,-0.0555572509765625,-0.0255279541015625
1675001275619587300,0.11058740234375,-1.1194915771484375,-0.0172271728515625,-0.02081298828125
1675001275629668400,0.12066845703125,-1.102569580078125,-0.0205078125,0.041046142578125
1675001275639749600,0.13074951171875,-1.0059814453125,-0.0758209228515625,0.0825653076171875
1675001275649830400,0.140830322265625,-0.95068359375,-0.128021240234375,0.0759124755859375
1675001275659910400,0.150910400390625,-0.9164276123046875,-0.199127197265625,-0.013946533203125
1675001275669991400,0.160991455078125,-0.8918304443359375,-0.183990478515625,-0.0236053466796875
1675001275680072200,0.171072265625,-1.010833740234375,-0.1266632080078125,-0.01947021484375
1675001275690152400,0.18115234375,-1.1944122314453125,-0.080108642578125,-0.0679931640625
1675001275700233500,0.1912333984375,-1.2732086181640625,-0.0550689697265625,-0.093780517578125
1675001275710314500,0.201314453125,-1.17333984375,-0.1071624755859375,-0.106048583984375
1675001275720395300,0.211395263671875,-0.9659271240234375,-0.2224578857421875,-0.12347412109375
1675001275730475500,0.2214755859375,-0.81622314453125,-0.321563720703125,-0.1326751708984375
1675001275740556500,0.231556640625,-0.8138427734375,-0.2928314208984375,-0.0897369384765625
1675001275750637600,0.241637451171875,-0.8831329345703125,-0.19580078125,-0.0070648193359375
1675001275760717300,0.25171728515625,-0.9250946044921875,-0.1217803955078125,0.05987548828125
1675001275770798300,0.26179833984375,-0.8594207763671875,-0.111541748046875,0.0798187255859375
1675001275780879600,0.271879638671875,-0.7599029541015625,-0.1585235595703125,0.0508270263671875
1675001275790959400,0.28195947265625,-0.762054443359375,-0.192962646484375,0.006805419921875
1675001275801040400,0.292040283203125,-0.8435211181640625,-0.226287841796875,-0.0581207275390625
1675001275811121400,0.302121337890625,-0.9880828857421875,-0.23602294921875,-0.0931396484375
1675001275821202200,0.3122021484375,-1.0981292724609375,-0.2135162353515625,-0.12103271484375
1675001275831282200,0.3222822265625,-1.065216064453125,-0.2368316650390625,-0.149078369140625
1675001275841363200,0.33236328125,-0.9738922119140625,-0.2494964599609375,-0.1896209716796875
1675001275851444200,0.3424443359375,-0.973785400390625,-0.2435150146484375,-0.239654541015625
1675001275861524200,0.352524169921875,-0.8681182861328125,-0.2884674072265625,-0.2144927978515625
1675001275871605200,0.362605224609375,-0.8701019287109375,-0.3272247314453125,-0.1156768798828125
1675001275881686300,0.372686279296875,-0.9675750732421875,-0.3127899169921875,0.01507568359375
1675001275891767300,0.382767333984375,-0.941619873046875,-0.2824859619140625,0.118316650390625
1675001275901847300,0.392847412109375,-0.8556976318359375,-0.251800537109375,0.1873626708984375
1675001275911928000,0.402927978515625,-0.775146484375,-0.2224884033203125,0.2335662841796875
1675001275922009300,0.41300927734375,-0.8121185302734375,-0.21173095703125,0.1477813720703125
1675001275932089300,0.42308935546875,-0.883453369140625,-0.177459716796875,0.0597076416015625
1675001275942170000,0.433170166015625,-0.9242095947265625,-0.121307373046875,0.01031494140625
1675001275952251100,0.443251220703125,-0.91162109375,-0.1136016845703125,-0.0066986083984375
1675001275962331400,0.453331298828125,-0.935455322265625,-0.1638031005859375,-0.0947265625
1675001275972412400,0.463412353515625,-1.0507354736328125,-0.27740478515625,-0.2709808349609375
1675001275982493200,0.4734931640625,-1.065185546875,-0.3020172119140625,-0.2634124755859375
1675001275992574200,0.48357421875,-1.034912109375,-0.2722015380859375,-0.1212158203125
1675001276002654200,0.493654296875,-1.01434326171875,-0.2355499267578125,0.009979248046875
1675001276012735500,0.503735595703125,-1.0024261474609375,-0.226470947265625,0.0805511474609375
1675001276022816300,0.513816162109375,-0.992034912109375,-0.2451171875,0.1280364990234375
1675001276032896300,0.523896240234375,-0.9944000244140625,-0.248291015625,0.1518707275390625
1675001276042977300,0.533977294921875,-1.0001678466796875,-0.2244873046875,0.143280029296875
1675001276053058000,0.54405810546875,-0.9852752685546875,-0.1925048828125,0.1067047119140625
1675001276063139300,0.554139404296875,-0.9841461181640625,-0.1669921875,0.0655059814453125
1675001276073219300,0.56421923828125,-0.99432373046875,-0.15692138671875,0.0392608642578125
1675001276083300400,0.57430029296875,-0.9860992431640625,-0.1498260498046875,0.00677490234375
1675001276093381000,0.584381103515625,-0.9738006591796875,-0.1415252685546875,-0.0357208251953125
1675001276103461400,0.59446142578125,-0.9935455322265625,-0.1370697021484375,-0.0626983642578125
1675001276113542400,0.60454248046875,-1.04656982421875,-0.1473388671875,-0.020751953125
1675001276123623400,0.61462353515625,-1.110565185546875,-0.182098388671875,0.090850830078125
1675001276133704200,0.6247041015625,-1.063262939453125,-0.2186431884765625,0.1898040771484375
1675001276143784200,0.6347841796875,-0.97003173828125,-0.21771240234375,0.2336883544921875
1675001276153865200,0.644865234375,-0.9348297119140625,-0.1817779541015625,0.1942596435546875
1675001276163946200,0.6549462890625,-0.9313507080078125,-0.1352996826171875,0.1096038818359375
1675001276174026200,0.665026123046875,-0.969512939453125,-0.1064453125,0.00592041015625
1675001276184107300,0.675107177734375,-1.017669677734375,-0.0904083251953125,-0.048492431640625
1675001276194188300,0.685188232421875,-1.0596160888671875,-0.0605926513671875,-0.044189453125
1675001276204268300,0.695268310546875,-1.083465576171875,-0.03997802734375,-0.030609130859375
1675001276214349300,0.705349365234375,-1.1197967529296875,-0.0293121337890625,-0.02825927734375
1675001276224430300,0.715430419921875,-1.135345458984375,-0.032958984375,0.00360107421875
1675001276234511000,0.725510986328125,-1.134124755859375,-0.0594482421875,0.054351806640625
1675001276244591400,0.73559130859375,-1.1024017333984375,-0.082672119140625,0.064971923828125
1675001276254672400,0.74567236328125,-1.045806884765625,-0.099517822265625,0.0434112548828125
1675001276264753400,0.75575341796875,-1.0072021484375,-0.1116485595703125,0.0198516845703125
1675001276274833200,0.765833251953125,-0.970977783203125,-0.123504638671875,-0.01275634765625
1675001276284914200,0.7759140625,-0.933990478515625,-0.13653564453125,-0.01165771484375
1675001276294995200,0.7859951171875,-0.9041748046875,-0.130828857421875,-0.0478973388671875
1675001276305076500,0.796076416015625,-0.9456024169921875,-0.1161041259765625,-0.1038970947265625
1675001276315156200,0.80615625,-1.01251220703125,-0.10699462890625,-0.0765838623046875
1675001276325237200,0.8162373046875,-1.04400634765625,-0.1005859375,-0.0264434814453125
1675001276335318300,0.826318359375,-1.0295867919921875,-0.1076507568359375,-0.021148681640625
1675001276345398300,0.836398193359375,-1.011871337890625,-0.1129913330078125,-0.044342041015625
1675001276355479300,0.846479248046875,-1.021026611328125,-0.1099395751953125,-0.059173583984375
1675001276365560300,0.856560302734375,-1.0076904296875,-0.123565673828125,-0.08221435546875
1675001276375641300,0.866641357421875,-0.979339599609375,-0.131103515625,-0.07421875
1675001276385721000,0.87672119140625,-0.9825286865234375,-0.144287109375,-0.0413055419921875
1675001276395802400,0.88680224609375,-1.0048675537109375,-0.156158447265625,-0.0246734619140625
1675001276405883400,0.89688330078125,-1.01763916015625,-0.158721923828125,-0.0006866455078125
1675001276415963100,0.906963134765625,-1.00872802734375,-0.1620025634765625,-0.00653076171875
1675001276426044200,0.917044189453125,-1.015594482421875,-0.150177001953125,-0.0279693603515625
1675001276436125200,0.927125244140625,-1.03564453125,-0.134033203125,-0.030914306640625
1675001276446205200,0.937205078125,-0.9963531494140625,-0.133392333984375,-0.0737457275390625
1675001276456286200,0.9472861328125,-0.9875640869140625,-0.133392333984375,-0.071502685546875
1675001276466367200,0.9573671875,-0.967071533203125,-0.143890380859375,-0.053070068359375
1675001276476448300,0.9674482421875,-0.936676025390625,-0.1578369140625,-0.0603179931640625
1675001276486528300,0.9775283203125,-0.9611358642578125,-0.1541900634765625,-0.064910888671875
1675001276496609300,0.987609375,-1.019012451171875,-0.1399993896484375,-0.033843994140625
1675001276506690300,0.997690185546875,-1.0245819091796875,-0.14215087890625,-0.06622314453125
1675001276516770300,1.007770263671875,-0.99383544921875,-0.141357421875,-0.08123779296875
1675001276526851000,1.01785107421875,-0.964141845703125,-0.1474609375,-0.063140869140625
1675001276536932400,1.027932373046875,-0.93499755859375,-0.1592559814453125,-0.0570526123046875
1675001276547013400,1.038013427734375,-0.9111175537109375,-0.1665496826171875,-0.0516204833984375
1675001276557093000,1.048093017578125,-0.9123687744140625,-0.1671142578125,-0.050048828125
1675001276567174100,1.058174072265625,-0.9303741455078125,-0.1749725341796875,-0.078338623046875
1675001276577255200,1.068255126953125,-0.948028564453125,-0.184600830078125,-0.1162567138671875
1675001276587335400,1.07833544921875,-0.94964599609375,-0.1917572021484375,-0.143280029296875
1675001276597416200,1.088416259765625,-0.9338531494140625,-0.187957763671875,-0.1522674560546875
1675001276607497200,1.098497314453125,-0.924407958984375,-0.185333251953125,-0.111846923828125
1675001276617577200,1.1085771484375,-0.9300079345703125,-0.187530517578125,-0.081512451171875
1675001276627658200,1.118658203125,-0.969757080078125,-0.184722900390625,-0.03289794921875
1675001276637739300,1.1287392578125,-1.0190887451171875,-0.1823883056640625,-0.0230560302734375
1675001276647820300,1.1388203125,-1.0300445556640625,-0.185455322265625,-0.0453643798828125
1675001276657900300,1.148900390625,-1.0189056396484375,-0.1796722412109375,-0.0357666015625
1675001276667981000,1.15898095703125,-1.0066375732421875,-0.1799774169921875,-0.04364013671875
1675001276678062000,1.16906201171875,-1.0003204345703125,-0.190826416015625,-0.06158447265625
1675001276688142300,1.179142333984375,-1.01214599609375,-0.187469482421875,-0.068511962890625
1675001276698223400,1.189223388671875,-1.0135345458984375,-0.17779541015625,-0.0714111328125
1675001276708304100,1.19930419921875,-0.997711181640625,-0.1737213134765625,-0.0720062255859375
1675001276718385200,1.20938525390625,-0.993316650390625,-0.1727752685546875,-0.0717620849609375
1675001276728465400,1.21946533203125,-1.0006256103515625,-0.168609619140625,-0.0651702880859375
1675001276738546400,1.22954638671875,-1.0231781005859375,-0.1685638427734375,-0.04205322265625
1675001276748627200,1.239627197265625,-1.0372467041015625,-0.1702880859375,-0.02783203125
1675001276758707200,1.249707275390625,-1.027557373046875,-0.1753387451171875,-0.02593994140625
1675001276768788200,1.259788330078125,-1.006927490234375,-0.181396484375,-0.0457916259765625
1675001276778869200,1.269869140625,-0.975372314453125,-0.1859893798828125,-0.0657501220703125
1675001276788949200,1.27994921875,-0.9735565185546875,-0.18548583984375,-0.052398681640625
1675001276799030300,1.2900302734375,-0.98028564453125,-0.19061279296875,-0.062957763671875
1675001276809111300,1.300111328125,-0.9927978515625,-0.1992340087890625,-0.05328369140625
1675001276819192000,1.310192138671875,-0.9991455078125,-0.2067108154296875,-0.03375244140625
1675001276829272000,1.32027197265625,-0.9715118408203125,-0.217742919921875,-0.0630340576171875
1675001276839353000,1.33035302734375,-0.95513916015625,-0.222564697265625,-0.0457000732421875
1675001276849434000,1.34043408203125,-0.9648590087890625,-0.226806640625,-0.0526580810546875
1675001276859514000,1.35051416015625,-0.97552490234375,-0.2108306884765625,-0.017852783203125
1675001276869595100,1.36059521484375,-1.0092010498046875,-0.21258544921875,0.00372314453125
1675001276879676200,1.37067626953125,-1.0434722900390625,-0.2357177734375,-0.0005340576171875
1675001276889756200,1.380756103515625,-1.031829833984375,-0.25958251953125,-0.0130767822265625
1675001276899837000,1.3908369140625,-1.0040130615234375,-0.2471771240234375,-0.0055389404296875
1675001276909918000,1.40091796875,-1.0049591064453125,-0.2308349609375,0.0109710693359375
1675001276919999200,1.410999267578125,-1.0089263916015625,-0.2185516357421875,0.0215301513671875
1675001276930079200,1.421079345703125,-0.99078369140625,-0.2112274169921875,0.0229339599609375
1675001276940160000,1.431159912109375,-0.967010498046875,-0.2055511474609375,0.0116729736328125
1675001276950241000,1.441240966796875,-0.95111083984375,-0.1931304931640625,-0.0016326904296875
1675001276960321300,1.4513212890625,-0.9515380859375,-0.1825408935546875,-0.01806640625
1675001276970402300,1.46140234375,-0.9544830322265625,-0.1707305908203125,-0.010223388671875
1675001276980483000,1.471483154296875,-0.919158935546875,-0.1743011474609375,0.0058746337890625
1675001276990563000,1.48156298828125,-0.87274169921875,-0.1872100830078125,0.0036163330078125
1675001277000644000,1.49164404296875,-0.8311614990234375,-0.195526123046875,0.0061187744140625
1675001277010725000,1.50172509765625,-0.851043701171875,-0.197479248046875,0.0195465087890625
1675001277020806100,1.51180615234375,-0.88507080078125,-0.1875,0.056671142578125
1675001277030886100,1.52188623046875,-0.932861328125,-0.1987762451171875,0.039276123046875
1675001277040967200,1.53196728515625,-0.937713623046875,-0.1908721923828125,0.039520263671875
1675001277051048000,1.5420478515625,-0.9255523681640625,-0.1737518310546875,0.0569305419921875
1675001277061128200,1.552128173828125,-0.9111785888671875,-0.1821746826171875,0.1222991943359375
1675001277071209200,1.562209228515625,-0.881683349609375,-0.1872406005859375,0.1770782470703125
1675001277081290200,1.572290283203125,-0.888275146484375,-0.145477294921875,0.1450653076171875
1675001277091371000,1.58237109375,-0.7826080322265625,-0.1391143798828125,0.2142486572265625
1675001277101451300,1.592451171875,-0.6798553466796875,-0.184173583984375,0.25250244140625
1675001277111532300,1.6025322265625,-0.7496795654296875,-0.2236785888671875,0.205474853515625
1675001277121613000,1.612613037109375,-0.8774261474609375,-0.2445831298828125,0.2601165771484375
1675001277131693000,1.622693115234375,-0.868194580078125,-0.233734130859375,0.192413330078125
1675001277141774000,1.632774169921875,-0.814544677734375,-0.176483154296875,0.0885162353515625
1675001277151855000,1.642855224609375,-0.725067138671875,-0.1138153076171875,0.0053253173828125
1675001277161935000,1.65293505859375,-0.6265106201171875,-0.108154296875,-0.0023040771484375
1675001277172016000,1.66301611328125,-0.5385894775390625,-0.1230316162109375,0.0514373779296875
1675001277182097200,1.67309716796875,-0.4512939453125,-0.12298583984375,0.10076904296875
1675001277192178200,1.68317822265625,-0.4233551025390625,-0.1337738037109375,0.1352386474609375
1675001277202258200,1.693258056640625,-0.452484130859375,-0.1652984619140625,0.1237030029296875
1675001277212339200,1.703339111328125,-0.4817657470703125,-0.1300048828125,0.1166229248046875
1675001277222420200,1.713420166015625,-0.5545196533203125,-0.0662384033203125,0.116912841796875
1675001277232500000,1.7235,-0.7437896728515625,-0.0306854248046875,0.0872344970703125
1675001277242581200,1.733581298828125,-0.86724853515625,-0.033233642578125,0.0575103759765625
1675001277252662300,1.743662353515625,-0.823822021484375,-0.062744140625,0.0348968505859375
1675001277262742000,1.753741943359375,-0.7448272705078125,0.0023040771484375,-0.0594024658203125
1675001277272823000,1.763822998046875,-0.53375244140625,-0.02325439453125,-0.075042724609375
1675001277282904000,1.773904052734375,-0.4884033203125,0.0374603271484375,-0.2603912353515625
1675001277292985000,1.783985107421875,-0.5986785888671875,0.097869873046875,-0.0702362060546875
1675001277303065000,1.794065185546875,-0.7315521240234375,0.0118865966796875,0.1424407958984375
1675001277313146000,1.80414599609375,-0.64971923828125,-0.0659942626953125,0.1717376708984375
1675001277323227100,1.81422705078125,-0.6376190185546875,-0.017486572265625,0.1354522705078125
1675001277333307100,1.82430712890625,-0.842742919921875,0.0422515869140625,-0.0142822265625
1675001277343388200,1.83438818359375,-1.160919189453125,0.02197265625,-0.1099090576171875
1675001277353469200,1.84446923828125,-1.1466064453125,-0.0164642333984375,-0.118438720703125
1675001277363549200,1.854549072265625,-0.655853271484375,0.0213165283203125,-0.1600494384765625
1675001277373630000,1.8646298828125,-0.5649566650390625,0.0924530029296875,-0.139739990234375
1675001277383711000,1.8747109375,-0.732635498046875,0.1729583740234375,-0.0607452392578125
1675001277393792300,1.884792236328125,-0.8494110107421875,0.2445068359375,0.014495849609375
1675001277403872000,1.8948720703125,-0.8414154052734375,0.2814788818359375,0.0838775634765625
1675001277413953000,1.904953125,-0.86834716796875,0.2706756591796875,0.1042633056640625
1675001277424034000,1.915033935546875,-0.962799072265625,0.2145538330078125,-0.0744171142578125
1675001277434114300,1.9251142578125,-1.0055084228515625,0.2122955322265625,-0.111236572265625
1675001277444195000,1.935195068359375,-1.109405517578125,0.3167877197265625,-0.0162353515625
1675001277454276000,1.945276123046875,-1.2519683837890625,0.5330810546875,0.0093231201171875
1675001277464357000,1.955357177734375,-1.6115875244140625,0.696929931640625,-0.1604156494140625
1675001277474437000,1.96543701171875,-1.7194366455078125,0.7129058837890625,-0.4344940185546875
1675001277484518100,1.97551806640625,-1.4746551513671875,0.672698974609375,-0.53509521484375
1675001277494599200,1.98559912109375,-1.2647857666015625,0.6468658447265625,-0.640594482421875
1675001277504679200,1.99567919921875,-1.0638885498046875,0.66717529296875,-0.6426849365234375
1675001277514760000,2.005760009765625,-0.956085205078125,0.7536468505859375,-0.50836181640625
1675001277524841000,2.015841064453125,-0.90435791015625,0.788818359375,-0.401947021484375
1675001277534921200,2.025921142578125,-0.9732818603515625,0.7011871337890625,-0.4015655517578125
1675001277545002200,2.036002197265625,-1.1083221435546875,0.58929443359375,-0.4693450927734375
1675001277555083000,2.0460830078125,-1.174560546875,0.573883056640625,-0.5235748291015625
1675001277565164000,2.0561640625,-1.1433868408203125,0.678558349609375,-0.5240020751953125
1675001277575244300,2.066244384765625,-1.0934906005859375,0.75341796875,-0.602935791015625
1675001277585325300,2.0763251953125,-1.0923614501953125,0.7491455078125,-0.808197021484375
1675001277595406000,2.086406005859375,-1.1661834716796875,0.647857666015625,-0.962005615234375
1675001277605486000,2.096486083984375,-1.2038116455078125,0.526153564453125,-0.909942626953125
1675001277615567000,2.106567138671875,-1.159942626953125,0.46661376953125,-0.7840118408203125
1675001277625648000,2.116648193359375,-1.0458526611328125,0.4930419921875,-0.67657470703125
1675001277635728100,2.12672802734375,-0.9179840087890625,0.5302276611328125,-0.7213134765625
1675001277645809200,2.13680908203125,-0.846710205078125,0.5999908447265625,-0.872467041015625
1675001277655890200,2.14689013671875,-0.833038330078125,0.6889495849609375,-0.9781036376953125
1675001277665971000,2.156970947265625,-0.8312530517578125,0.7069854736328125,-1.013671875
1675001277676051200,2.16705126953125,-0.8159027099609375,0.6505889892578125,-0.98126220703125
1675001277686132200,2.17713232421875,-0.7974853515625,0.562713623046875,-0.8828887939453125
1675001277696213200,2.187213134765625,-0.78338623046875,0.5035552978515625,-0.78668212890625
1675001277706293000,2.19729296875,-0.8322296142578125,0.5036773681640625,-0.70159912109375
1675001277716374300,2.207374267578125,-0.9283294677734375,0.5401763916015625,-0.73468017578125
1675001277726455300,2.217455322265625,-1.1662445068359375,0.6199493408203125,-0.657257080078125
1675001277736536000,2.2275361328125,-1.17474365234375,0.662139892578125,-0.577178955078125
1675001277746616000,2.237615966796875,-1.020233154296875,0.594970703125,-0.7243194580078125
1675001277756697000,2.247697021484375,-0.85504150390625,0.6471099853515625,-0.7893218994140625
1675001277766778000,2.257778076171875,-0.69586181640625,0.7203216552734375,-0.71551513671875
1675001277776858000,2.267858154296875,-0.334869384765625,0.6640625,-0.6710968017578125
1675001277786939100,2.277939208984375,-0.184417724609375,0.6005401611328125,-0.377685546875
1675001277797020200,2.288020263671875,-0.4745635986328125,0.615478515625,-0.4195404052734375
1675001277807100200,2.29810009765625,-0.540863037109375,0.67236328125,-0.6688385009765625
1675001277817181400,2.308181396484375,-0.3990478515625,0.8200836181640625,-0.710174560546875
1675001277827262500,2.318262451171875,-0.2716217041015625,0.8658447265625,-0.8119354248046875
1675001277837343500,2.328343505859375,-0.2284698486328125,0.7712554931640625,-0.9120025634765625
1675001277847423200,2.33842333984375,-0.131439208984375,0.689453125,-1.0092315673828125
1675001277857504300,2.348504150390625,0.022918701171875,0.671966552734375,-0.815704345703125
1675001277867585500,2.35858544921875,0.0531005859375,0.660888671875,-0.5519561767578125
1675001277877665300,2.368665283203125,0.0179443359375,0.619110107421875,-0.501678466796875
1675001277887746300,2.378746337890625,-0.013916015625,0.561767578125,-0.451019287109375
1675001277897827300,2.388827392578125,-0.0764312744140625,0.5315093994140625,-0.454986572265625
1675001277907908400,2.398908447265625,-0.2669677734375,0.641876220703125,-0.43939208984375
1675001277917988400,2.40898828125,-0.191680908203125,0.6752166748046875,-0.6371612548828125
1675001277928069400,2.4190693359375,0.0124359130859375,0.65704345703125,-0.6226806640625
1675001277938150400,2.429150390625,0.09661865234375,0.684112548828125,-0.4405975341796875
1675001277948230100,2.439230224609375,-0.0293121337890625,0.8380126953125,-0.4195404052734375
1675001277958311400,2.4493115234375,-0.24627685546875,0.953369140625,-0.438720703125
1675001277968392400,2.459392333984375,-0.2435455322265625,1.07373046875,-0.5057830810546875
1675001277978472400,2.469472412109375,-0.2244720458984375,1.0135498046875,-0.6165008544921875
1675001277988553200,2.47955322265625,-0.2532806396484375,0.8981781005859375,-0.6502532958984375
1675001277998634200,2.48963427734375,-0.2106170654296875,0.747406005859375,-0.7559356689453125
1675001278008715300,2.49971533203125,-0.2048492431640625,0.643341064453125,-0.7699432373046875
1675001278018795500,2.50979541015625,-0.2760467529296875,0.5789031982421875,-0.7027587890625
1675001278028876300,2.519876220703125,-0.2163848876953125,0.55145263671875,-0.670684814453125
1675001278038957300,2.529957275390625,-0.154937744140625,0.5040130615234375,-0.6234893798828125
1675001278049037600,2.54003759765625,-0.1400909423828125,0.4567413330078125,-0.553497314453125
1675001278059118300,2.550118408203125,-0.1173095703125,0.44891357421875,-0.540740966796875
1675001278069199400,2.560199462890625,-0.111724853515625,0.517425537109375,-0.69036865234375
1675001278079280400,2.5702802734375,-0.0644073486328125,0.6025848388671875,-0.8430633544921875
1675001278089360400,2.5803603515625,-0.08917236328125,0.6419830322265625,-0.8613433837890625
1675001278099441400,2.59044140625,-0.1376190185546875,0.632080078125,-0.8229522705078125
1675001278109522400,2.6005224609375,-0.146392822265625,0.5999908447265625,-0.8455352783203125
1675001278119602400,2.6106025390625,-0.0856170654296875,0.563629150390625,-0.863037109375
1675001278129683500,2.620683349609375,-0.0995025634765625,0.66754150390625,-0.88592529296875
1675001278139764200,2.63076416015625,-0.006744384765625,0.771453857421875,-0.864013671875
1675001278149845200,2.64084521484375,-0.025604248046875,0.7193450927734375,-0.7595977783203125
1675001278159925500,2.650925537109375,-0.0620269775390625,0.66595458984375,-0.676239013671875
1675001278170006300,2.66100634765625,-0.1044464111328125,0.605712890625,-0.6405487060546875
1675001278180087300,2.67108740234375,-0.11932373046875,0.58184814453125,-0.6584625244140625
1675001278190167600,2.68116748046875,-0.04766845703125,0.60638427734375,-0.6809234619140625
1675001278200248600,2.69124853515625,0.1142578125,0.665557861328125,-0.7618408203125
1675001278210329300,2.701329345703125,0.1647796630859375,0.8043060302734375,-0.715240478515625
1675001278220410400,2.711410400390625,-0.20526123046875,0.8541259765625,-0.663909912109375
1675001278230490400,2.721490478515625,-0.1904296875,0.7657623291015625,-0.677459716796875
1675001278240571400,2.7315712890625,-0.004547119140625,0.7250823974609375,-0.840118408203125
1675001278250652400,2.74165234375,0.114898681640625,0.72662353515625,-0.8059539794921875
1675001278260732400,2.751732421875,0.1483154296875,0.7810821533203125,-0.5195770263671875
1675001278270813400,2.7618134765625,0.14813232421875,0.8612823486328125,-0.2997589111328125
1675001278280894200,2.771894287109375,0.1859893798828125,1.0422821044921875,-0.2481536865234375
1675001278290975200,2.781975341796875,0.19140625,1.08734130859375,-0.480865478515625
1675001278301055500,2.792055419921875,0.167144775390625,1.0857391357421875,-0.6580810546875
1675001278311136500,2.802136474609375,0.16156005859375,1.0984039306640625,-0.686920166015625
1675001278321217300,2.81221728515625,0.126800537109375,1.0663604736328125,-0.639678955078125
1675001278331297300,2.82229736328125,0.126922607421875,0.9922332763671875,-0.5612335205078125
1675001278341378600,2.832378662109375,0.0889739990234375,0.850555419921875,-0.5301666259765625
1675001278351459300,2.842459228515625,0.0707244873046875,0.7259521484375,-0.5043182373046875
1675001278361539300,2.852539306640625,-0.0061492919921875,0.7012481689453125,-0.332275390625
1675001278371620400,2.862620361328125,-0.1100616455078125,0.7596282958984375,-0.15460205078125
1675001278381701400,2.872701416015625,-0.1533203125,0.785491943359375,-0.109619140625
1675001278391782400,2.882782470703125,-0.108001708984375,0.7263336181640625,-0.1848907470703125
1675001278401862400,2.8928623046875,-0.0814208984375,0.7416839599609375,-0.28515625
1675001278411943400,2.902943359375,-0.0279388427734375,0.815704345703125,-0.3366851806640625
1675001278422024400,2.9130244140625,-0.0441741943359375,0.88214111328125,-0.2976531982421875
1675001278432104400,2.9231044921875,0.0175323486328125,0.848175048828125,-0.273468017578125
1675001278442185500,2.933185546875,0.1473236083984375,0.7883148193359375,-0.19512939453125
1675001278452266500,2.9432666015625,0.2557220458984375,0.77947998046875,-0.0722808837890625
1675001278462347300,2.95334716796875,0.24981689453125,0.78009033203125,0.0572052001953125
1675001278472427300,2.96342724609375,0.1690216064453125,0.8149261474609375,0.09619140625
1675001278482508500,2.973508544921875,0.0398101806640625,0.895538330078125,0.0986480712890625
1675001278492589600,2.983589599609375,-0.1002044677734375,0.990203857421875,0.1051788330078125
1675001278502669300,2.99366943359375,-0.1425323486328125,1.0247802734375,0.0805816650390625
1675001278512750300,3.003750244140625,-0.0717010498046875,0.9906158447265625,-0.024078369140625
1675001278522831400,3.013831298828125,0.012969970703125,0.926422119140625,-0.049896240234375
1675001278532912400,3.023912353515625,0.1059722900390625,0.94970703125,0.007080078125
1675001278542992400,3.033992431640625,0.1933746337890625,1.007598876953125,-0.04986572265625
1675001278553073400,3.044073486328125,0.185791015625,0.9142608642578125,-0.102874755859375
1675001278563154400,3.054154541015625,0.0404052734375,0.956146240234375,-0.0842742919921875
1675001278573234400,3.064234375,-0.002410888671875,0.9983673095703125,-0.0713958740234375
1675001278583315500,3.0743154296875,0.0453643798828125,0.994384765625,-0.05926513671875
1675001278593396500,3.084396484375,0.04876708984375,1.1030731201171875,-0.177276611328125
1675001278603476200,3.094476318359375,0.0605316162109375,1.2832489013671875,-0.3295440673828125
1675001278613557200,3.10455712890625,0.07135009765625,1.522247314453125,-0.47845458984375
1675001278623638300,3.11463818359375,0.085235595703125,1.741729736328125,-0.5711669921875
1675001278633719600,3.124719482421875,0.04144287109375,1.877288818359375,-0.5278167724609375
1675001278643799300,3.13479931640625,0.0209197998046875,1.7332611083984375,-0.26336669921875
1675001278653880300,3.14488037109375,0.0372467041015625,1.2791290283203125,0.0556488037109375
1675001278663961300,3.15496142578125,0.035247802734375,0.9242706298828125,0.085113525390625
1675001278674041300,3.165041259765625,-0.0029296875,0.8990478515625,-0.0625457763671875
1675001278684122400,3.175122314453125,0.011993408203125,0.98040771484375,-0.171875
1675001278694203400,3.185203369140625,0.0501708984375,1.01513671875,-0.243194580078125
1675001278704284400,3.195284423828125,0.0586700439453125,0.98828125,-0.261016845703125
1675001278714364400,3.205364501953125,0.0648956298828125,0.9603118896484375,-0.2171173095703125
1675001278724445400,3.215445556640625,0.08465576171875,0.9718017578125,-0.169769287109375
1675001278734526500,3.2255263671875,0.10760498046875,0.9910430908203125,-0.14239501953125
1675001278744606500,3.2356064453125,0.1154022216796875,0.9970703125,-0.1297760009765625
1675001278754687200,3.245687255859375,0.112884521484375,0.9944915771484375,-0.1284637451171875
1675001278764768300,3.255768310546875,0.1032562255859375,0.988739013671875,-0.1367645263671875
1675001278774848500,3.2658486328125,0.0963592529296875,0.9914093017578125,-0.1493377685546875
1675001278784929300,3.27592919921875,0.085784912109375,0.99688720703125,-0.1461334228515625
1675001278795010300,3.28601025390625,0.069305419921875,1.0027618408203125,-0.1315155029296875
1675001278805090300,3.29609033203125,0.0496978759765625,1.0005950927734375,-0.1204071044921875
1675001278815171600,3.306171630859375,0.03887939453125,1.0045013427734375,-0.1138458251953125
1675001278825252600,3.316252685546875,0.036376953125,1.0074615478515625,-0.1177825927734375
1675001278835333600,3.326333740234375,0.04034423828125,1.00714111328125,-0.1224212646484375
1675001278845413400,3.336413330078125,0.0488128662109375,0.9993133544921875,-0.132415771484375
1675001278855494400,3.346494384765625,0.0563812255859375,0.99163818359375,-0.144439697265625
1675001278865575400,3.356575439453125,0.063629150390625,0.98175048828125,-0.1545867919921875
1675001278875655400,3.366655517578125,0.071197509765625,0.9796905517578125,-0.1645660400390625
1675001278885736400,3.376736328125,0.0766143798828125,0.981719970703125,-0.1736907958984375
1675001278895817500,3.3868173828125,0.0783843994140625,0.9862518310546875,-0.17724609375
1675001278905898500,3.3968984375,0.078704833984375,0.989959716796875,-0.1796417236328125
1675001278915978500,3.406978515625,0.0746307373046875,0.9917144775390625,-0.174407958984375
1675001278926059500,3.4170595703125,0.0737762451171875,0.9909820556640625,-0.1679534912109375
1675001278936140500,3.427140625,0.074859619140625,0.9860076904296875,-0.1694183349609375
1675001278946220300,3.43722021484375,0.0744171142578125,0.9811248779296875,-0.1758575439453125
1675001278956301600,3.447301513671875,0.07373046875,0.9794464111328125,-0.192901611328125
1675001278966382600,3.457382568359375,0.0737457275390625,0.97906494140625,-0.205596923828125
1675001278976462600,3.467462646484375,0.0720062255859375,0.982391357421875,-0.214080810546875
1675001278986543400,3.47754345703125,0.069122314453125,0.981048583984375,-0.2175750732421875
1675001278996624400,3.487624267578125,0.0660858154296875,0.97796630859375,-0.2115020751953125
1675001279006704600,3.49770458984375,0.0627593994140625,0.977325439453125,-0.20843505859375
1675001279016785700,3.50778564453125,0.0623321533203125,0.974029541015625,-0.212493896484375
1675001279026866400,3.517866455078125,0.06170654296875,0.9725341796875,-0.21881103515625
1675001279036947500,3.527947509765625,0.067138671875,0.9736175537109375,-0.2252655029296875
1675001279047027700,3.53802783203125,0.075469970703125,0.9741363525390625,-0.2247772216796875
1675001279057108500,3.5481083984375,0.0840606689453125,0.970245361328125,-0.22259521484375
1675001279067189500,3.558189453125,0.08734130859375,0.968475341796875,-0.2164459228515625
1675001279077269500,3.56826953125,0.08056640625,0.9641571044921875,-0.2136993408203125
1675001279087350500,3.5783505859375,0.071624755859375,0.956939697265625,-0.2208099365234375
1675001279097431300,3.588431396484375,0.0624237060546875,0.9531707763671875,-0.237152099609375
1675001279107511600,3.598511474609375,0.057952880859375,0.95245361328125,-0.24505615234375
1675001279117592600,3.608592529296875,0.0464630126953125,0.9505462646484375,-0.2523956298828125
1675001279127673300,3.61867333984375,0.038787841796875,0.9515380859375,-0.2570953369140625
1675001279137754400,3.62875439453125,0.0382232666015625,0.9496002197265625,-0.2727813720703125
1675001279147834600,3.638834716796875,0.044677734375,0.9477081298828125,-0.288543701171875
1675001279157915600,3.64891552734375,0.0500946044921875,0.951019287109375,-0.299774169921875
1675001279167996400,3.658996337890625,0.0519866943359375,0.951416015625,-0.3052520751953125
1675001279178076400,3.669076416015625,0.0516204833984375,0.9554290771484375,-0.3003082275390625
1675001279188157400,3.679157470703125,0.0484771728515625,0.958740234375,-0.2820892333984375
1675001279198238700,3.68923876953125,0.0447540283203125,0.9569091796875,-0.272003173828125
1675001279208318500,3.699318359375,0.0371246337890625,0.964508056640625,-0.2526092529296875
1675001279218399500,3.7093994140625,0.0310211181640625,0.9759674072265625,-0.236419677734375
1675001279228480500,3.71948046875,0.02740478515625,0.97637939453125,-0.230804443359375
1675001279238560500,3.729560546875,0.0249481201171875,0.975311279296875,-0.2320404052734375
1675001279248641500,3.7396416015625,0.0268402099609375,0.971038818359375,-0.2373199462890625
1675001279258722600,3.74972265625,0.0356597900390625,0.96429443359375,-0.2337646484375
1675001279268803600,3.759803466796875,0.0481414794921875,0.9639129638671875,-0.220794677734375
1675001279278883600,3.769883544921875,0.0589752197265625,0.967803955078125,-0.196258544921875
1675001279288964600,3.779964599609375,0.0665283203125,0.9656829833984375,-0.1746978759765625
1675001279299045600,3.790045654296875,0.0720367431640625,0.971405029296875,-0.16290283203125
1675001279309125400,3.80012548828125,0.077239990234375,0.97882080078125,-0.1656341552734375
1675001279319206400,3.810206298828125,0.0832672119140625,0.9858245849609375,-0.1667938232421875
1675001279329287400,3.820287353515625,0.0845489501953125,0.98260498046875,-0.1624603271484375
1675001279339367400,3.830367431640625,0.0799102783203125,0.9811248779296875,-0.152862548828125
1675001279349448400,3.840448486328125,0.0736236572265625,0.9813385009765625,-0.14544677734375
1675001279359529500,3.850529541015625,0.0703887939453125,0.97955322265625,-0.1436309814453125
1675001279369609500,3.860609375,0.0649871826171875,0.9795379638671875,-0.15130615234375
1675001279379690500,3.8706904296875,0.0574188232421875,0.9843292236328125,-0.1602020263671875
1675001279389771500,3.880771484375,0.0537109375,0.999298095703125,-0.161163330078125
1675001279399852500,3.8908525390625,0.049407958984375,1.0015106201171875,-0.1576690673828125
1675001279409932500,3.9009326171875,0.0471343994140625,0.98944091796875,-0.1580047607421875
1675001279420013300,3.911013427734375,0.050628662109375,0.9730682373046875,-0.16595458984375
1675001279430094600,3.921094482421875,0.059814453125,0.96380615234375,-0.18475341796875
1675001279440174600,3.931174560546875,0.066741943359375,0.9649810791015625,-0.2042236328125
1675001279450255400,3.94125537109375,0.0618896484375,0.9706878662109375,-0.222991943359375
1675001279460336400,3.95133642578125,0.04833984375,0.9759063720703125,-0.2298736572265625
1675001279470416600,3.961416748046875,0.0323944091796875,0.977447509765625,-0.235107421875
1675001279480497700,3.97149755859375,0.02099609375,0.97393798828125,-0.242706298828125
1675001279490578400,3.981578369140625,0.0123443603515625,0.97283935546875,-0.2481842041015625
1675001279500659500,3.991659423828125,0.0164642333984375,0.9865875244140625,-0.2338714599609375
1675001279510739500,4.001739501953125,0.033294677734375,0.9962005615234375,-0.2147369384765625
1675001279520820700,4.01182080078125,0.0497589111328125,0.991790771484375,-0.1829681396484375
1675001279530901500,4.021901611328125,0.0632171630859375,0.981231689453125,-0.160858154296875
1675001279540981500,4.0319814453125,0.0668792724609375,0.9711761474609375,-0.1520538330078125
1675001279551062500,4.0420625,0.0698394775390625,0.971893310546875,-0.1516265869140625
1675001279561143300,4.052143310546875,0.066009521484375,0.9791412353515625,-0.159027099609375
1675001279571223600,4.0622236328125,0.05255126953125,0.99163818359375,-0.15875244140625
1675001279581304600,4.0723046875,0.0326080322265625,1.0012969970703125,-0.1497039794921875
1675001279591385600,4.082385498046875,0.0144500732421875,1.002960205078125,-0.1351165771484375
1675001279601465300,4.09246533203125,0.004730224609375,1.00054931640625,-0.124969482421875
1675001279611546600,4.102546630859375,0.004180908203125,1.0027008056640625,-0.1207427978515625
1675001279621627600,4.112627685546875,0.0134735107421875,0.9946746826171875,-0.131103515625
1675001279631708700,4.122708740234375,0.0288848876953125,0.9803466796875,-0.165008544921875
1675001279641788400,4.132788330078125,0.0446929931640625,0.96710205078125,-0.2010040283203125
1675001279651869400,4.142869384765625,0.0583648681640625,0.9638824462890625,-0.2223052978515625
1675001279661950500,4.152950439453125,0.066802978515625,0.9694976806640625,-0.2340545654296875
1675001279672030500,4.163030517578125,0.068450927734375,0.97332763671875,-0.2321319580078125
1675001279682111500,4.173111572265625,0.060882568359375,0.9734649658203125,-0.2187957763671875
1675001279692192500,4.183192626953125,0.0539093017578125,0.976348876953125,-0.2059783935546875
1675001279702272500,4.1932724609375,0.0501708984375,0.980072021484375,-0.1961517333984375
1675001279712353500,4.203353515625,0.0455322265625,0.9808197021484375,-0.1787872314453125
1675001279722434600,4.2134345703125,0.0341949462890625,0.9761505126953125,-0.1552734375
1675001279732514600,4.2235146484375,0.02593994140625,0.9727935791015625,-0.1225128173828125
1675001279742595300,4.23359521484375,0.0347442626953125,0.9693450927734375,-0.103973388671875
1675001279752676600,4.243676513671875,0.052398681640625,0.96466064453125,-0.098602294921875
1675001279762757600,4.253757568359375,0.060211181640625,0.9729766845703125,-0.0979766845703125
1675001279772837400,4.26383740234375,0.0644378662109375,0.986114501953125,-0.0809478759765625
1675001279782918400,4.27391845703125,0.082672119140625,0.9866790771484375,-0.0648345947265625
1675001279792999400,4.28399951171875,0.1068115234375,0.9818572998046875,-0.0576629638671875
1675001279803079700,4.29407958984375,0.127105712890625,0.9792633056640625,-0.059478759765625
1675001279813160400,4.304160400390625,0.132659912109375,0.9972381591796875,-0.0793914794921875
1675001279823241700,4.31424169921875,0.126861572265625,1.0166778564453125,-0.1123199462890625
1675001279833321500,4.324321533203125,0.1038818359375,1.0009002685546875,-0.150360107421875
1675001279843402800,4.33440283203125,0.06072998046875,0.9737091064453125,-0.181640625
1675001279853483800,4.34448388671875,0.0245513916015625,0.988494873046875,-0.203582763671875
1675001279863564800,4.354564697265625,0.0158233642578125,1.020721435546875,-0.21734619140625
1675001279873644500,4.36464453125,0.033935546875,1.0264739990234375,-0.231170654296875
1675001279883725600,4.3747255859375,0.06256103515625,1.018951416015625,-0.2491912841796875
1675001279893806600,4.384806640625,0.1042633056640625,1.0132904052734375,-0.271453857421875
1675001279903886600,4.394886474609375,0.1475067138671875,1.0172119140625,-0.310394287109375
1675001279913967600,4.404967529296875,0.1739959716796875,0.9919281005859375,-0.339141845703125
1675001279924048600,4.415048583984375,0.1858062744140625,0.947723388671875,-0.3534088134765625
1675001279934128600,4.425128662109375,0.1884307861328125,0.935577392578125,-0.35833740234375
1675001279944209700,4.435209716796875,0.1944580078125,0.9552764892578125,-0.3453826904296875
1675001279954290700,4.445290771484375,0.18194580078125,0.9783172607421875,-0.31756591796875
1675001279964370700,4.45537060546875,0.1253814697265625,0.98876953125,-0.2813720703125
1675001279974451700,4.46545166015625,0.0521240234375,0.99383544921875,-0.2367095947265625
1675001279984532500,4.475532470703125,-0.0299835205078125,1.007415771484375,-0.1926422119140625
1675001279994613800,4.48561376953125,-0.0913848876953125,1.026702880859375,-0.1610565185546875
1675001280004693800,4.49569384765625,-0.11260986328125,1.0341644287109375,-0.1326904296875
1675001280014774500,4.5057744140625,-0.0938720703125,1.0294647216796875,-0.116851806640625
1675001280024855600,4.51585546875,-0.040435791015625,1.0072784423828125,-0.11871337890625
1675001280034935800,4.525935791015625,0.0151519775390625,0.98114013671875,-0.135406494140625
1675001280045016800,4.536016845703125,0.0488433837890625,0.9649658203125,-0.1577301025390625
1675001280055097600,4.54609765625,0.06109619140625,0.9734039306640625,-0.1842193603515625
1675001280065177600,4.556177490234375,0.0864105224609375,0.9950103759765625,-0.23968505859375
1675001280075258600,4.566258544921875,0.1248931884765625,0.9835662841796875,-0.2925567626953125
1675001280085340000,4.57633984375,0.1699676513671875,0.9405517578125,-0.3133087158203125
1675001280095419600,4.586419677734375,0.2163238525390625,0.8917388916015625,-0.32177734375
1675001280105500700,4.596500732421875,0.2387542724609375,0.862548828125,-0.3194580078125
1675001280115581700,4.606581787109375,0.2288665771484375,0.85418701171875,-0.3182220458984375
1675001280125662500,4.616662353515625,0.182830810546875,0.86041259765625,-0.307403564453125
1675001280135742700,4.62674267578125,0.143524169921875,0.8821258544921875,-0.2742767333984375
1675001280145823700,4.63682373046875,0.103851318359375,0.923187255859375,-0.2308502197265625
1675001280155904800,4.64690478515625,0.0617828369140625,0.979644775390625,-0.1670684814453125
1675001280165984500,4.656984619140625,0.0220794677734375,1.02880859375,-0.09515380859375
1675001280176065800,4.667065673828125,-0.013153076171875,1.07147216796875,-0.0449981689453125
1675001280186146800,4.677146728515625,-0.0579833984375,1.1111907958984375,-0.02264404296875
1675001280196226600,4.6872265625,-0.0840301513671875,1.113189697265625,-0.0120391845703125
1675001280206307600,4.6973076171875,-0.07818603515625,1.0771636962890625,-0.0447998046875
1675001280216388600,4.707388671875,-0.0391693115234375,1.031829833984375,-0.0957489013671875
1675001280226469600,4.7174697265625,0.0062103271484375,0.98388671875,-0.138275146484375
1675001280236549600,4.727549560546875,0.0380096435546875,0.9564666748046875,-0.147186279296875
1675001280246630700,4.737630615234375,0.032958984375,0.9405059814453125,-0.1439056396484375
1675001280256711700,4.747711669921875,0.0194549560546875,0.934295654296875,-0.12969970703125
1675001280266791700,4.757791748046875,0.0134124755859375,0.93621826171875,-0.117279052734375
1675001280276872700,4.767872802734375,0.0103607177734375,0.9486846923828125,-0.1227569580078125
1675001280286953700,4.77795361328125,0.0059967041015625,0.971588134765625,-0.1440582275390625
1675001280297033700,4.78803369140625,0.0122833251953125,0.9845123291015625,-0.178802490234375
1675001280307114500,4.798114501953125,0.0153656005859375,0.979248046875,-0.2222900390625
1675001280317195800,4.80819580078125,0.0100250244140625,0.9718780517578125,-0.2535247802734375
1675001280327276800,4.81827685546875,-0.0048828125,0.969970703125,-0.2704315185546875
1675001280337356500,4.8283564453125,-0.02703857421875,0.9664154052734375,-0.2825164794921875
1675001280347437600,4.8384375,-0.059234619140625,0.9708709716796875,-0.285797119140625
1675001280357518600,4.8485185546875,-0.0781707763671875,0.977325439453125,-0.2892608642578125
1675001280367598800,4.858598876953125,-0.07757568359375,0.98004150390625,-0.2917022705078125
1675001280377679600,4.8686796875,-0.0715484619140625,0.97869873046875,-0.293548583984375
1675001280387760600,4.8787607421875,-0.059722900390625,0.9711456298828125,-0.2935028076171875
1675001280397840600,4.888840576171875,-0.041900634765625,0.9656219482421875,-0.306854248046875
1675001280407921700,4.898921630859375,-0.020660400390625,0.963653564453125,-0.335845947265625
1675001280418002700,4.909002685546875,-0.0019683837890625,0.945068359375,-0.33831787109375
1675001280428082700,4.919082763671875,0.0074462890625,0.9324951171875,-0.3357391357421875
1675001280438163700,4.929163818359375,0.0030364990234375,0.9382781982421875,-0.313262939453125
1675001280448244500,4.939244384765625,-0.005889892578125,0.9520263671875,-0.2944793701171875
1675001280458325500,4.949325439453125,-0.016998291015625,0.965728759765625,-0.2852630615234375
1675001280468405800,4.95940576171875,-0.031463623046875,0.9700469970703125,-0.2772369384765625
1675001280478486800,4.96948681640625,-0.045074462890625,0.970794677734375,-0.26416015625
1675001280488567600,4.979567626953125,-0.0512542724609375,0.9721221923828125,-0.2538909912109375
1675001280498647800,4.989647705078125,-0.0496826171875,0.976959228515625,-0.2422943115234375
1675001280508728800,4.999728759765625,-0.042388916015625,0.9770965576171875,-0.23883056640625
1675001280518809600,5.0098095703125,-0.039337158203125,0.972137451171875,-0.2401885986328125
1675001280528889600,5.0198896484375,-0.040008544921875,0.9639739990234375,-0.2393951416015625
1675001280538970600,5.029970703125,-0.0455474853515625,0.949676513671875,-0.247772216796875
1675001280549051600,5.0400517578125,-0.0493316650390625,0.9408416748046875,-0.2497711181640625
1675001280559132700,5.050132568359375,-0.05499267578125,0.9410400390625,-0.2505645751953125
1675001280569212700,5.060212646484375,-0.0584564208984375,0.943939208984375,-0.2553863525390625
1675001280579293700,5.070293701171875,-0.062591552734375,0.9512939453125,-0.25439453125
1675001280589374700,5.080374755859375,-0.0653839111328125,0.9642181396484375,-0.2548065185546875
1675001280599454700,5.090454833984375,-0.0632781982421875,0.977508544921875,-0.256195068359375
1675001280609535700,5.10053564453125,-0.064208984375,0.9903717041015625,-0.25982666015625
1675001280619616800,5.11061669921875,-0.069580078125,0.9939422607421875,-0.2692718505859375
1675001280629696500,5.120696533203125,-0.0737762451171875,0.98760986328125,-0.280914306640625
1675001280639777500,5.130777587890625,-0.075836181640625,0.9760894775390625,-0.289154052734375
1675001280649858800,5.14085888671875,-0.0757293701171875,0.9611358642578125,-0.2899169921875
1675001280659939800,5.15093994140625,-0.072357177734375,0.9486083984375,-0.28778076171875
1675001280670019600,5.16101953125,-0.06927490234375,0.94207763671875,-0.284515380859375
1675001280680100600,5.1711005859375,-0.065185546875,0.946502685546875,-0.2869873046875
1675001280690181600,5.181181640625,-0.06072998046875,0.95233154296875,-0.291717529296875
1675001280700261600,5.19126171875,-0.058624267578125,0.955047607421875,-0.295623779296875
1675001280710342700,5.2013427734375,-0.0522308349609375,0.9555511474609375,-0.3007049560546875
1675001280720423700,5.211423583984375,-0.0524749755859375,0.9551239013671875,-0.30108642578125
1675001280730503700,5.221503662109375,-0.054656982421875,0.9564971923828125,-0.2990570068359375
1675001280740584700,5.231584716796875,-0.058258056640625,0.9527740478515625,-0.2944488525390625
1675001280750665700,5.241665771484375,-0.0634765625,0.9530487060546875,-0.2904815673828125
1675001280760745700,5.251745849609375,-0.069580078125,0.9539947509765625,-0.286224365234375
1675001280770826500,5.261826416015625,-0.0750579833984375,0.9506378173828125,-0.2815399169921875
1675001280780907500,5.271907470703125,-0.07965087890625,0.949920654296875,-0.282196044921875
1675001280790988800,5.28198876953125,-0.0805816650390625,0.9508209228515625,-0.285736083984375
1675001280801068800,5.29206884765625,-0.0799102783203125,0.9553680419921875,-0.2860565185546875
1675001280811149600,5.302149658203125,-0.076385498046875,0.961456298828125,-0.29144287109375
1675001280821230000,5.31222998046875,-0.072174072265625,0.9603118896484375,-0.2937164306640625
1675001280831310300,5.322310302734375,-0.0696868896484375,0.9599609375,-0.297821044921875
1675001280841391000,5.33239111328125,-0.067047119140625,0.9577789306640625,-0.2967529296875
1675001280851472100,5.34247216796875,-0.064727783203125,0.9581146240234375,-0.29144287109375
1675001280861552000,5.35255224609375,-0.061248779296875,0.957977294921875,-0.2864532470703125
1675001280871633400,5.36263330078125,-0.0601043701171875,0.9609527587890625,-0.279693603515625
1675001280881714200,5.372714111328125,-0.056915283203125,0.963897705078125,-0.276641845703125
1675001280891795200,5.382795166015625,-0.0531005859375,0.96221923828125,-0.277099609375
1675001280901875200,5.392875244140625,-0.0499420166015625,0.9559326171875,-0.277496337890625
1675001280911956000,5.4029560546875,-0.048553466796875,0.946624755859375,-0.276641845703125
1675001280922037200,5.413037353515625,-0.0477294921875,0.94207763671875,-0.276641845703125
1675001280932117200,5.4231171875,-0.0492401123046875,0.943695068359375,-0.27880859375
1675001280942198300,5.4331982421875,-0.050994873046875,0.9470367431640625,-0.279449462890625
1675001280952279000,5.443279052734375,-0.05377197265625,0.952239990234375,-0.2833099365234375
1675001280962359300,5.453359375,-0.0556793212890625,0.9516143798828125,-0.2843017578125
1675001280972440300,5.4634404296875,-0.0545501708984375,0.9556427001953125,-0.2872467041015625
1675001280982521000,5.47352099609375,-0.0594635009765625,0.95770263671875,-0.2884368896484375
1675001280992602000,5.48360205078125,-0.0635833740234375,0.9586029052734375,-0.2886199951171875
1675001281002682000,5.49368212890625,-0.0675811767578125,0.9609832763671875,-0.29034423828125
1675001281012763100,5.50376318359375,-0.069488525390625,0.961944580078125,-0.2913970947265625
1675001281022844200,5.51384423828125,-0.06719970703125,0.9608612060546875,-0.29254150390625
1675001281032924200,5.523924072265625,-0.0651397705078125,0.9571075439453125,-0.2899322509765625
1675001281043005200,5.534005126953125,-0.061431884765625,0.956939697265625,-0.28662109375
1675001281053086200,5.544086181640625,-0.057861328125,0.9545440673828125,-0.2831878662109375
1675001281063166200,5.554166259765625,-0.0581512451171875,0.953704833984375,-0.282989501953125
1675001281073247200,5.564247314453125,-0.0558624267578125,0.95928955078125,-0.2782135009765625
1675001281083328300,5.574328369140625,-0.056304931640625,0.96343994140625,-0.28173828125
1675001281093409000,5.584408935546875,-0.0599822998046875,0.9622802734375,-0.2871856689453125
1675001281103489300,5.5944892578125,-0.0593109130859375,0.961395263671875,-0.2928619384765625
1675001281113570300,5.6045703125,-0.0580291748046875,0.9594879150390625,-0.2910614013671875
1675001281123651300,5.6146513671875,-0.056732177734375,0.96014404296875,-0.2911834716796875
1675001281133731000,5.62473095703125,-0.0558624267578125,0.960174560546875,-0.29217529296875
1675001281143812000,5.63481201171875,-0.056182861328125,0.9577178955078125,-0.29302978515625
1675001281153893000,5.64489306640625,-0.059326171875,0.95220947265625,-0.296173095703125
1675001281163973000,5.65497314453125,-0.061614990234375,0.94500732421875,-0.30181884765625
1675001281174054100,5.66505419921875,-0.063446044921875,0.9415130615234375,-0.3050537109375
1675001281184135200,5.67513525390625,-0.065093994140625,0.941131591796875,-0.3114471435546875
1675001281194216200,5.68521630859375,-0.0651702880859375,0.9437103271484375,-0.311737060546875
1675001281204296200,5.695296142578125,-0.0651092529296875,0.9466705322265625,-0.3101043701171875
1675001281214377200,5.705377197265625,-0.06024169921875,0.9513092041015625,-0.3077239990234375
1675001281224458200,5.715458251953125,-0.0562591552734375,0.9510650634765625,-0.30499267578125
1675001281234538000,5.7255380859375,-0.0525054931640625,0.950408935546875,-0.296875
1675001281244619000,5.735618896484375,-0.0503997802734375,0.950592041015625,-0.2899932861328125
1675001281254700300,5.7457001953125,-0.0542144775390625,0.9543609619140625,-0.2825927734375
1675001281264780300,5.7557802734375,-0.0582122802734375,0.95703125,-0.2792816162109375
1675001281274861000,5.765861083984375,-0.06170654296875,0.9598236083984375,-0.2733306884765625
1675001281284942000,5.775942138671875,-0.0618743896484375,0.962982177734375,-0.2710113525390625
1675001281295023000,5.786023193359375,-0.061492919921875,0.96514892578125,-0.2675628662109375
1675001281305103000,5.79610302734375,-0.059844970703125,0.9692535400390625,-0.26611328125
1675001281315184000,5.80618408203125,-0.058349609375,0.9755706787109375,-0.2614593505859375
1675001281325265200,5.81626513671875,-0.0569915771484375,0.977935791015625,-0.2586669921875
1675001281335345200,5.82634521484375,-0.05426025390625,0.9746246337890625,-0.253875732421875
1675001281345426200,5.83642626953125,-0.0515289306640625,0.9724578857421875,-0.2499237060546875
1675001281355507200,5.846507080078125,-0.048095703125,0.966094970703125,-0.2457122802734375
1675001281365587200,5.856587158203125,-0.045989990234375,0.96075439453125,-0.2470855712890625
1675001281375668200,5.866668212890625,-0.0453643798828125,0.9581298828125,-0.2529754638671875
1675001281385749000,5.8767490234375,-0.0478973388671875,0.9562225341796875,-0.26312255859375
1675001281395830300,5.886830322265625,-0.0488128662109375,0.9523468017578125,-0.2707977294921875
1675001281405910300,5.89691015625,-0.0506591796875,0.9506072998046875,-0.276214599609375
1675001281415991000,5.906990966796875,-0.05328369140625,0.95367431640625,-0.2816314697265625
1675001281426072000,5.917072021484375,-0.056549072265625,0.958038330078125,-0.2892303466796875
1675001281436152300,5.92715234375,-0.059051513671875,0.9581298828125,-0.2950286865234375
1675001281446233300,5.9372333984375,-0.0609283447265625,0.9577178955078125,-0.301177978515625
1675001281456314000,5.947314208984375,-0.062408447265625,0.9569244384765625,-0.3043212890625
1675001281466394000,5.95739404296875,-0.0618896484375,0.9554595947265625,-0.306976318359375
1675001281476475100,5.96747509765625,-0.064239501953125,0.9542388916015625,-0.3111419677734375
1675001281486556400,5.977556396484375,-0.066070556640625,0.95062255859375,-0.31109619140625
1675001281496637200,5.98763720703125,-0.0683441162109375,0.94903564453125,-0.308837890625
1675001281506717200,5.99771728515625,-0.070556640625,0.9495391845703125,-0.307342529296875
1675001281516798200,6.007798095703125,-0.072601318359375,0.95196533203125,-0.3072052001953125
1675001281526879000,6.01787890625,-0.0724029541015625,0.9541015625,-0.304351806640625
1675001281536959200,6.027959228515625,-0.0712890625,0.9567108154296875,-0.300628662109375
1675001281547040300,6.038040283203125,-0.0702972412109375,0.9556732177734375,-0.295379638671875
1675001281557121300,6.048121337890625,-0.068756103515625,0.9523468017578125,-0.2911224365234375
1675001281567201000,6.058200927734375,-0.0649261474609375,0.95062255859375,-0.285125732421875
1675001281577282300,6.0682822265625,-0.0648040771484375,0.9485321044921875,-0.2848663330078125
1675001281587363300,6.07836328125,-0.06488037109375,0.94891357421875,-0.2862548828125
1675001281597444000,6.088444091796875,-0.063140869140625,0.953857421875,-0.2859954833984375
1675001281607524000,6.098524169921875,-0.063507080078125,0.957061767578125,-0.286712646484375
1675001281617605000,6.108605224609375,-0.06317138671875,0.9599609375,-0.286529541015625
1675001281627686100,6.11868603515625,-0.0637664794921875,0.961883544921875,-0.2867279052734375
1675001281637766100,6.12876611328125,-0.05877685546875,0.9626617431640625,-0.2868804931640625
1675001281647847200,6.13884716796875,-0.0577545166015625,0.96014404296875,-0.287261962890625
1675001281657928200,6.14892822265625,-0.0585174560546875,0.9573211669921875,-0.2888641357421875
1675001281668008200,6.15900830078125,-0.055694580078125,0.9565277099609375,-0.28985595703125
1675001281678089200,6.169089111328125,-0.0558624267578125,0.9524688720703125,-0.2910614013671875
1675001281688170200,6.179170166015625,-0.0555572509765625,0.9489288330078125,-0.2915191650390625
1675001281698251300,6.189251220703125,-0.0518951416015625,0.9481964111328125,-0.2902984619140625
1675001281708331000,6.1993310546875,-0.0530548095703125,0.94732666015625,-0.291473388671875
1675001281718412300,6.209412353515625,-0.055084228515625,0.949432373046875,-0.29412841796875
1675001281728493300,6.219493408203125,-0.0576171875,0.951171875,-0.2965545654296875
1675001281738573000,6.229572998046875,-0.062652587890625,0.9536590576171875,-0.3000946044921875
1675001281748654000,6.239654052734375,-0.064422607421875,0.9569244384765625,-0.301788330078125
1675001281758735000,6.249735107421875,-0.0683746337890625,0.9563140869140625,-0.2989349365234375
1675001281768815400,6.2598154296875,-0.0708770751953125,0.9560089111328125,-0.294036865234375
1675001281778896100,6.269896240234375,-0.07073974609375,0.9552459716796875,-0.28985595703125
1675001281788977200,6.27997705078125,-0.0712432861328125,0.9569244384765625,-0.288177490234375
1675001281799058200,6.29005810546875,-0.072296142578125,0.95758056640625,-0.2872772216796875
1675001281809138200,6.30013818359375,-0.0747222900390625,0.9604339599609375,-0.28375244140625
1675001281819219200,6.31021923828125,-0.074432373046875,0.961181640625,-0.280426025390625
1675001281829300700,6.32030078125,-0.0757293701171875,0.9586334228515625,-0.2754669189453125
1675001281839380500,6.33038037109375,-0.07464599609375,0.9569854736328125,-0.27130126953125
1675001281849461500,6.34046142578125,-0.07391357421875,0.95489501953125,-0.26910400390625
1675001281859542500,6.35054248046875,-0.0749359130859375,0.9556884765625,-0.267547607421875
1675001281869622500,6.36062255859375,-0.075225830078125,0.957244873046875,-0.2710113525390625
1675001281879703600,6.37070361328125,-0.0742034912109375,0.9595794677734375,-0.2752685546875
1675001281889784600,6.38078466796875,-0.0734710693359375,0.9596099853515625,-0.2820587158203125
1675001281899865600,6.390865478515625,-0.0712127685546875,0.9565887451171875,-0.284942626953125
1675001281909945600,6.400945556640625,-0.067626953125,0.953399658203125,-0.2877349853515625
1675001281920026600,6.411026611328125,-0.066619873046875,0.9502716064453125,-0.2904815673828125
1675001281930107600,6.421107666015625,-0.066741943359375,0.952178955078125,-0.29583740234375
1675001281940187400,6.4311875,-0.0658111572265625,0.9556121826171875,-0.297821044921875
1675001281950268400,6.441268310546875,-0.0664215087890625,0.9593505859375,-0.30029296875
1675001281960349400,6.451349365234375,-0.0657806396484375,0.9591217041015625,-0.29931640625
1675001281970430700,6.4614306640625,-0.06683349609375,0.9557037353515625,-0.29461669921875
1675001281980510500,6.471510498046875,-0.067047119140625,0.95367431640625,-0.2914886474609375
1675001281990591500,6.481591552734375,-0.0670318603515625,0.9515228271484375,-0.2879486083984375
1675001282000672500,6.491672607421875,-0.069000244140625,0.9528045654296875,-0.28668212890625
1675001282010752500,6.50175244140625,-0.0706787109375,0.95404052734375,-0.2920379638671875
1675001282020833500,6.51183349609375,-0.070526123046875,0.955322265625,-0.2940673828125
1675001282030914600,6.52191455078125,-0.069976806640625,0.954620361328125,-0.29547119140625
1675001282040994600,6.53199462890625,-0.0692291259765625,0.950927734375,-0.2978363037109375
1675001282051075600,6.54207568359375,-0.0688018798828125,0.9495086669921875,-0.297698974609375
1675001282061156600,6.552156494140625,-0.0644989013671875,0.9503326416015625,-0.297210693359375
1675001282071237600,6.562237548828125,-0.0632476806640625,0.9525146484375,-0.2945556640625
1675001282081317600,6.572317626953125,-0.0632781982421875,0.956878662109375,-0.2917633056640625
1675001282091398400,6.5823984375,-0.065460205078125,0.9597625732421875,-0.291595458984375
1675001282101479400,6.5924794921875,-0.0665130615234375,0.9585113525390625,-0.29180908203125
1675001282111559700,6.6025595703125,-0.068206787109375,0.9547882080078125,-0.29083251953125
1675001282121640400,6.612640380859375,-0.07086181640625,0.94775390625,-0.2883758544921875
1675001282131721500,6.622721435546875,-0.07171630859375,0.94744873046875,-0.284759521484375
1675001282141801500,6.632801513671875,-0.073822021484375,0.9501953125,-0.2830352783203125
1675001282151882800,6.6428828125,-0.0720062255859375,0.9572906494140625,-0.2850799560546875
1675001282161963500,6.652963623046875,-0.0723114013671875,0.960540771484375,-0.2893218994140625
1675001282172044500,6.66304443359375,-0.0705413818359375,0.9621734619140625,-0.2891998291015625
1675001282182124500,6.67312451171875,-0.06787109375,0.95928955078125,-0.288970947265625
1675001282192205300,6.683205322265625,-0.0651702880859375,0.9566192626953125,-0.2871856689453125
1675001282202286600,6.69328662109375,-0.0617828369140625,0.9556121826171875,-0.282073974609375
1675001282212366600,6.70336669921875,-0.0601806640625,0.9571990966796875,-0.27947998046875
1675001282222447600,6.713447509765625,-0.0614166259765625,0.962921142578125,-0.2766265869140625
1675001282232528400,6.7235283203125,-0.0613250732421875,0.96734619140625,-0.2742919921875
1675001282242609400,6.733609375,-0.062652587890625,0.9660186767578125,-0.276702880859375
1675001282252689700,6.743689697265625,-0.0614166259765625,0.963836669921875,-0.272186279296875
1675001282262770700,6.753770751953125,-0.0610198974609375,0.9572601318359375,-0.26922607421875
1675001282272851500,6.7638515625,-0.0597991943359375,0.956756591796875,-0.268951416015625
1675001282282931500,6.773931396484375,-0.0596466064453125,0.9561767578125,-0.26690673828125
1675001282293012700,6.7840126953125,-0.0615081787109375,0.9600067138671875,-0.26885986328125
1675001282303093500,6.794093505859375,-0.0639495849609375,0.9611053466796875,-0.27191162109375
1675001282313173500,6.804173583984375,-0.067657470703125,0.9625091552734375,-0.2760467529296875
1675001282323254500,6.814254638671875,-0.06719970703125,0.962738037109375,-0.277252197265625
1675001282333335600,6.82433544921875,-0.0671844482421875,0.9611053466796875,-0.27557373046875
1675001282343416600,6.83441650390625,-0.0640411376953125,0.957427978515625,-0.27557373046875
1675001282353496600,6.84449658203125,-0.0664520263671875,0.95477294921875,-0.2740936279296875
1675001282363577600,6.85457763671875,-0.067535400390625,0.9553680419921875,-0.277587890625
1675001282373658600,6.86465869140625,-0.0686492919921875,0.955047607421875,-0.2841033935546875
1675001282383738600,6.874738525390625,-0.070709228515625,0.9509429931640625,-0.289947509765625
1675001282393819600,6.884819580078125,-0.073333740234375,0.94769287109375,-0.2927093505859375
1675001282403900700,6.894900634765625,-0.072998046875,0.949920654296875,-0.2938995361328125
1675001282413981400,6.9049814453125,-0.071136474609375,0.953948974609375,-0.296722412109375
1675001282424061400,6.9150615234375,-0.0703887939453125,0.960357666015625,-0.29949951171875
1675001282434142500,6.925142578125,-0.0706787109375,0.9651031494140625,-0.301666259765625
1675001282444223700,6.9352236328125,-0.07012939453125,0.9642181396484375,-0.2997894287109375
1675001282454303500,6.945303466796875,-0.067352294921875,0.955657958984375,-0.297027587890625
1675001282464384500,6.955384521484375,-0.064361572265625,0.9485931396484375,-0.2909393310546875
1675001282474465500,6.965465576171875,-0.060546875,0.9486083984375,-0.282379150390625
1675001282484545500,6.975545654296875,-0.0595703125,0.952178955078125,-0.277252197265625
1675001282494626600,6.98562646484375,-0.060943603515625,0.956634521484375,-0.2730712890625
1675001282504707600,6.99570751953125,-0.0636444091796875,0.9602813720703125,-0.2708587646484375
1675001282514788600,7.00578857421875,-0.06695556640625,0.967987060546875,-0.269683837890625
1675001282524868600,7.01586865234375,-0.0677642822265625,0.9708099365234375,-0.268890380859375
1675001282534949600,7.02594970703125,-0.0677490234375,0.968048095703125,-0.264617919921875
1675001282545030700,7.03603076171875,-0.0674285888671875,0.9665679931640625,-0.2596588134765625
1675001282555110400,7.0461103515625,-0.0657806396484375,0.9685211181640625,-0.2524566650390625
1675001282565191400,7.05619140625,-0.065673828125,0.9686126708984375,-0.2475738525390625
1675001282575272400,7.0662724609375,-0.0653076171875,0.9650726318359375,-0.2471466064453125
1675001282585352700,7.076352783203125,-0.0652313232421875,0.95751953125,-0.2461700439453125
1675001282595433500,7.08643359375,-0.0655364990234375,0.953460693359375,-0.246673583984375
1675001282605514500,7.096514404296875,-0.067047119140625,0.9542694091796875,-0.25335693359375
1675001282615595500,7.106595458984375,-0.0693359375,0.95843505859375,-0.264373779296875
1675001282625675500,7.116675537109375,-0.0705718994140625,0.9604949951171875,-0.2735137939453125
1675001282635756500,7.126756591796875,-0.072021484375,0.96392822265625,-0.2833709716796875
1675001282645837600,7.136837646484375,-0.0728912353515625,0.967071533203125,-0.287933349609375
1675001282655917600,7.14691748046875,-0.0752410888671875,0.967254638671875,-0.28948974609375
1675001282665998300,7.156998291015625,-0.07513427734375,0.96453857421875,-0.28955078125
1675001282676079600,7.16707958984375,-0.0760498046875,0.960845947265625,-0.2903900146484375
1675001282686160600,7.17716064453125,-0.0775604248046875,0.9564056396484375,-0.29339599609375
1675001282696240600,7.18724072265625,-0.0769195556640625,0.9514312744140625,-0.295501708984375
1675001282706321400,7.1973212890625,-0.0757598876953125,0.9458465576171875,-0.2962188720703125
1675001282716402400,7.20740234375,-0.0742950439453125,0.94683837890625,-0.29595947265625
1675001282726482700,7.217482666015625,-0.0699310302734375,0.95159912109375,-0.2961578369140625
1675001282736563500,7.2275634765625,-0.069183349609375,0.9568328857421875,-0.2991180419921875
1675001282746644500,7.23764453125,-0.071746826171875,0.9568634033203125,-0.2979583740234375
1675001282756724500,7.247724365234375,-0.071746826171875,0.95660400390625,-0.2924652099609375
1675001282766805800,7.2578056640625,-0.071990966796875,0.95361328125,-0.2851104736328125
1675001282776886500,7.267886474609375,-0.071441650390625,0.9542999267578125,-0.27734375
1675001282786967600,7.277967529296875,-0.0717926025390625,0.9557342529296875,-0.2735748291015625
1675001282797047600,7.288047607421875,-0.07293701171875,0.9571533203125,-0.27325439453125
1675001282807128300,7.29812841796875,-0.0726776123046875,0.957733154296875,-0.275238037109375
1675001282817209600,7.308209716796875,-0.0724029541015625,0.957611083984375,-0.275665283203125
1675001282827289300,7.318289306640625,-0.0710906982421875,0.958648681640625,-0.2732391357421875
1675001282837370400,7.328370361328125,-0.0725860595703125,0.9623260498046875,-0.2705230712890625
1675001282847451400,7.338451416015625,-0.0717010498046875,0.9630584716796875,-0.268096923828125
1675001282857532200,7.3485322265625,-0.07135009765625,0.9658203125,-0.2635955810546875
1675001282867612400,7.3586123046875,-0.0688629150390625,0.96295166015625,-0.2626800537109375
1675001282877693400,7.368693359375,-0.0684814453125,0.9582366943359375,-0.2605438232421875
1675001282887774500,7.3787744140625,-0.068939208984375,0.9579010009765625,-0.2587738037109375
1675001282897854200,7.388854248046875,-0.0691070556640625,0.9615020751953125,-0.2592315673828125
1675001282907935500,7.398935546875,-0.0703277587890625,0.96630859375,-0.2626953125
1675001282918016500,7.4090166015625,-0.07061767578125,0.967529296875,-0.2672271728515625
1675001282928096300,7.41909619140625,-0.064208984375,0.974365234375,-0.2703399658203125
1675001282938177300,7.42917724609375,-0.062469482421875,0.97088623046875,-0.2713470458984375
1675001282948258300,7.43925830078125,-0.0615386962890625,0.968963623046875,-0.2664031982421875
1675001282958339300,7.44933935546875,-0.0597991943359375,0.9660491943359375,-0.26019287109375
1675001282968419300,7.45941943359375,-0.0575408935546875,0.962646484375,-0.251617431640625
1675001282978500400,7.469500244140625,-0.059478759765625,0.9583740234375,-0.2482757568359375
1675001282988581400,7.479581298828125,-0.064422607421875,0.951324462890625,-0.2510528564453125
1675001282998661400,7.489661376953125,-0.0700836181640625,0.9481048583984375,-0.252197265625
1675001283008742400,7.499742431640625,-0.076385498046875,0.9466094970703125,-0.2590179443359375
1675001283018823400,7.509823486328125,-0.082244873046875,0.9517364501953125,-0.26910400390625
1675001283028904400,7.519904541015625,-0.0835113525390625,0.9577789306640625,-0.2794342041015625
1675001283038984200,7.529984130859375,-0.083404541015625,0.963592529296875,-0.289703369140625
1675001283049065500,7.5400654296875,-0.081085205078125,0.9644775390625,-0.2925872802734375
1675001283059146500,7.550146484375,-0.077667236328125,0.9668731689453125,-0.29290771484375
1675001283069226200,7.560226318359375,-0.0754852294921875,0.9725799560546875,-0.28973388671875
1675001283079307300,7.570307373046875,-0.0746917724609375,0.969512939453125,-0.291473388671875
1675001283089388300,7.58038818359375,-0.074432373046875,0.9568634033203125,-0.291351318359375
1675001283099469300,7.59046923828125,-0.0693206787109375,0.947845458984375,-0.28155517578125
1675001283109549300,7.60054931640625,-0.063690185546875,0.9484710693359375,-0.2681121826171875
1675001283119630300,7.61063037109375,-0.0622711181640625,0.9574127197265625,-0.259490966796875
1675001283129711400,7.62071142578125,-0.060943603515625,0.96673583984375,-0.2552947998046875
1675001283139791600,7.63079150390625,-0.0642242431640625,0.96929931640625,-0.2525634765625
1675001283149872400,7.640872314453125,-0.0678863525390625,0.965057373046875,-0.2505035400390625
1675001283159953400,7.650953369140625,-0.070404052734375,0.95819091796875,-0.2486572265625
1675001283170033400,7.661033447265625,-0.0722198486328125,0.955230712890625,-0.243927001953125
1675001283180114200,7.6711142578125,-0.075164794921875,0.954254150390625,-0.2451171875
1675001283190195200,7.6811953125,-0.080108642578125,0.9564666748046875,-0.2500152587890625
1675001283200276500,7.6912763671875,-0.0814361572265625,0.9629364013671875,-0.2560577392578125
1675001283210356500,7.7013564453125,-0.0820770263671875,0.972808837890625,-0.2599945068359375
1675001283220437200,7.711437255859375,-0.0822296142578125,0.978118896484375,-0.2653656005859375
1675001283230518300,7.721518310546875,-0.0819091796875,0.9824981689453125,-0.2677154541015625
1675001283240598500,7.7315986328125,-0.0814056396484375,0.9779510498046875,-0.26727294921875
1675001283250679600,7.741679443359375,-0.0800018310546875,0.9708251953125,-0.2664337158203125
1675001283260760300,7.75176025390625,-0.0799407958984375,0.96478271484375,-0.2653656005859375
1675001283270841300,7.76184130859375,-0.0828094482421875,0.9591522216796875,-0.2647247314453125
1675001283280921300,7.77192138671875,-0.085174560546875,0.956451416015625,-0.2681427001953125
1675001283291002400,7.78200244140625,-0.0850830078125,0.9531097412109375,-0.2720184326171875
1675001283301083400,7.79208349609375,-0.080718994140625,0.95098876953125,-0.275665283203125
1675001283311163400,7.802163330078125,-0.074737548828125,0.951171875,-0.276458740234375
1675001283321244400,7.812244384765625,-0.0680084228515625,0.9519500732421875,-0.2783660888671875
1675001283331325200,7.8223251953125,-0.0661468505859375,0.9535064697265625,-0.28076171875
1675001283341405400,7.832405517578125,-0.06341552734375,0.9539031982421875,-0.28167724609375
1675001283351486500,7.842486572265625,-0.06591796875,0.954193115234375,-0.28363037109375
1675001283361567500,7.8525673828125,-0.0673980712890625,0.9571990966796875,-0.282318115234375
1675001283371648300,7.862648193359375,-0.0706634521484375,0.954925537109375,-0.2823638916015625
1675001283381728500,7.872728515625,-0.0738067626953125,0.9537353515625,-0.2841033935546875
1675001283391809500,7.8828095703125,-0.075714111328125,0.9550933837890625,-0.2820892333984375
1675001283401890300,7.892890380859375,-0.077667236328125,0.95745849609375,-0.278289794921875
1675001283411970300,7.90297021484375,-0.0785369873046875,0.959228515625,-0.27459716796875
1675001283422051300,7.91305126953125,-0.0781707763671875,0.962982177734375,-0.270111083984375
1675001283432132600,7.923132568359375,-0.0785675048828125,0.9674835205078125,-0.267364501953125
1675001283442213400,7.93321337890625,-0.0813751220703125,0.967559814453125,-0.265167236328125
1675001283452293400,7.94329345703125,-0.0814666748046875,0.9663848876953125,-0.2644195556640625
1675001283462374400,7.95337451171875,-0.076568603515625,0.9649505615234375,-0.2630157470703125
1675001283472455200,7.963455078125,-0.0741119384765625,0.9615631103515625,-0.259979248046875
1675001283482535400,7.973535400390625,-0.0730133056640625,0.95928955078125,-0.2593231201171875
1675001283492616400,7.983616455078125,-0.071563720703125,0.9592742919921875,-0.260162353515625
1675001283502697500,7.993697509765625,-0.070159912109375,0.9604339599609375,-0.2613372802734375
1675001283512778200,8.0037783203125,-0.068450927734375,0.9584197998046875,-0.2637939453125
1675001283522858500,8.0138583984375,-0.0684967041015625,0.956207275390625,-0.261962890625
1675001283532939500,8.023939453125,-0.0675201416015625,0.954681396484375,-0.260772705078125
1675001283543020500,8.0340205078125,-0.0661773681640625,0.9586181640625,-0.260650634765625
1675001283553100300,8.044100341796875,-0.0692901611328125,0.9644317626953125,-0.2595367431640625
1675001283563181300,8.054181396484376,-0.0712738037109375,0.9684600830078125,-0.26287841796875
1675001283573262300,8.064262451171874,-0.075225830078125,0.9728546142578125,-0.268829345703125
1675001283583343400,8.07434326171875,-0.0771331787109375,0.9692230224609375,-0.2694244384765625
1675001283593423400,8.08442333984375,-0.075103759765625,0.96624755859375,-0.26708984375
1675001283603504400,8.09450439453125,-0.072967529296875,0.963134765625,-0.2647705078125
1675001283613585400,8.10458544921875,-0.0713043212890625,0.9618072509765625,-0.2640533447265625
1675001283623665400,8.11466552734375,-0.0699005126953125,0.9610443115234375,-0.2620849609375
1675001283633746400,8.124746337890626,-0.069549560546875,0.9599609375,-0.2576904296875
1675001283643827500,8.134827392578124,-0.06549072265625,0.9638214111328125,-0.258209228515625
1675001283653907200,8.1449072265625,-0.0641326904296875,0.96551513671875,-0.25665283203125
1675001283663988200,8.15498828125,-0.0690460205078125,0.9658660888671875,-0.25885009765625
1675001283674069500,8.165069580078125,-0.0683441162109375,0.9647674560546875,-0.2593994140625
1675001283684150500,8.175150634765625,-0.0672454833984375,0.9610748291015625,-0.2613983154296875
1675001283694230300,8.185230224609375,-0.067047119140625,0.9605255126953125,-0.26434326171875
1675001283704311300,8.195311279296876,-0.067840576171875,0.963836669921875,-0.2690887451171875
1675001283714392300,8.205392333984374,-0.0704193115234375,0.966827392578125,-0.271331787109375
1675001283724472300,8.215472412109374,-0.0698089599609375,0.966705322265625,-0.270538330078125
1675001283734553300,8.22555322265625,-0.065948486328125,0.96478271484375,-0.267059326171875
1675001283744634400,8.23563427734375,-0.064453125,0.9603424072265625,-0.2647705078125
1675001283754715400,8.24571533203125,-0.06298828125,0.9540252685546875,-0.2627410888671875
1675001283764795400,8.25579541015625,-0.0636138916015625,0.9520721435546875,-0.2615966796875
1675001283774876400,8.26587646484375,-0.0650482177734375,0.96026611328125,-0.2599334716796875
1675001283784957400,8.27595751953125,-0.06683349609375,0.9720611572265625,-0.2608795166015625
1675001283795037200,8.286037109375,-0.0693817138671875,0.9823760986328125,-0.2628326416015625
1675001283805118200,8.2961181640625,-0.0686798095703125,0.9792022705078125,-0.2685089111328125
1675001283815199500,8.306199462890625,-0.0672760009765625,0.9694671630859375,-0.2694549560546875
1675001283825280000,8.316280029296875,-0.0634307861328125,0.9536285400390625,-0.269622802734375
1675001283835360800,8.32636083984375,-0.0633392333984375,0.9459228515625,-0.27203369140625
1675001283845441800,8.33644189453125,-0.06793212890625,0.9423065185546875,-0.2745361328125
1675001283855522800,8.346522705078126,-0.072784423828125,0.94390869140625,-0.2802886962890625
1675001283865603000,8.35660302734375,-0.0757904052734375,0.9498138427734375,-0.2861328125
1675001283875683800,8.366683837890625,-0.0760345458984375,0.954376220703125,-0.2919158935546875
1675001283885764900,8.376764892578125,-0.0751190185546875,0.9592437744140625,-0.2959136962890625
1675001283895844900,8.386844970703125,-0.0730438232421875,0.961944580078125,-0.2987823486328125
1675001283905926000,8.39692578125,-0.071685791015625,0.95977783203125,-0.300445556640625
1675001283916007000,8.4070068359375,-0.07086181640625,0.96124267578125,-0.3003692626953125
1675001283926088000,8.417087890625,-0.068206787109375,0.9593353271484375,-0.29962158203125
1675001283936168000,8.42716796875,-0.0638885498046875,0.9566192626953125,-0.2967071533203125
1675001283946248700,8.437248779296874,-0.0641326904296875,0.954986572265625,-0.288848876953125
1675001283956329700,8.447329833984375,-0.0595855712890625,0.9553375244140625,-0.27960205078125
1675001283966410000,8.457409912109375,-0.05804443359375,0.95068359375,-0.273193359375
1675001283976491000,8.467490966796875,-0.056549072265625,0.94598388671875,-0.2667388916015625
1675001283986571800,8.47757177734375,-0.0546417236328125,0.94384765625,-0.2611541748046875
1675001283996651800,8.48765185546875,-0.0550384521484375,0.94580078125,-0.2561187744140625
1675001284006733000,8.497733154296874,-0.057647705078125,0.9539642333984375,-0.2555389404296875
1675001284016814000,8.50781396484375,-0.061187744140625,0.961395263671875,-0.256561279296875
1675001284026894800,8.517894775390625,-0.0639190673828125,0.9690093994140625,-0.2602996826171875
1675001284036974800,8.527974853515625,-0.068328857421875,0.973907470703125,-0.2586212158203125
1675001284047056000,8.538055908203125,-0.0668487548828125,0.9723663330078125,-0.259124755859375
1675001284057137000,8.548136962890625,-0.0677032470703125,0.97003173828125,-0.2590179443359375
1675001284067217000,8.558216796875,-0.0705108642578125,0.971343994140625,-0.2592315673828125
1675001284077298000,8.5682978515625,-0.0719146728515625,0.9717864990234375,-0.2559814453125
1675001284087379000,8.57837890625,-0.073638916015625,0.973358154296875,-0.25439453125
1675001284097459700,8.588459716796875,-0.076690673828125,0.97576904296875,-0.25384521484375
1675001284107540000,8.5985400390625,-0.0780181884765625,0.9722442626953125,-0.25238037109375
1675001284117621000,8.60862109375,-0.078460693359375,0.968536376953125,-0.25225830078125
1675001284127702000,8.618701904296875,-0.0766143798828125,0.9659423828125,-0.252838134765625
1675001284137781800,8.62878173828125,-0.0732574462890625,0.96588134765625,-0.25439453125
1675001284147862800,8.63886279296875,-0.07415771484375,0.9661865234375,-0.259307861328125
1675001284157944000,8.648944091796874,-0.075164794921875,0.9648284912109375,-0.2655029296875
1675001284168024800,8.65902490234375,-0.0741729736328125,0.962890625,-0.27020263671875
1675001284178104800,8.669104736328125,-0.07342529296875,0.958953857421875,-0.2714996337890625
1675001284188185900,8.679185791015625,-0.070648193359375,0.9534149169921875,-0.2728424072265625
1675001284198267000,8.689266845703125,-0.069305419921875,0.953643798828125,-0.2733917236328125
1675001284208347000,8.699346923828125,-0.070831298828125,0.956390380859375,-0.27398681640625
1675001284218428000,8.709427978515626,-0.069488525390625,0.959747314453125,-0.2759857177734375
1675001284228509000,8.719509033203124,-0.0699005126953125,0.9603118896484375,-0.2771453857421875
1675001284238589700,8.729589599609374,-0.07061767578125,0.9599151611328125,-0.2769622802734375
1675001284248670000,8.739669921875,-0.06976318359375,0.95819091796875,-0.27618408203125
1675001284258751000,8.7497509765625,-0.0679168701171875,0.95562744140625,-0.27740478515625
1675001284268832000,8.75983203125,-0.0677947998046875,0.9561767578125,-0.278472900390625
1675001284278911700,8.769911865234375,-0.066314697265625,0.9573516845703125,-0.2788543701171875
1675001284288992800,8.77999267578125,-0.0688323974609375,0.9580535888671875,-0.2789306640625
1675001284299074000,8.790073974609374,-0.0695343017578125,0.95703125,-0.279266357421875
1675001284309153800,8.80015380859375,-0.06610107421875,0.9596405029296875,-0.279998779296875
1675001284319234800,8.81023486328125,-0.0682525634765625,0.9589385986328125,-0.276702880859375
1675001284329315800,8.82031591796875,-0.0681304931640625,0.95611572265625,-0.2754364013671875
1675001284339396900,8.83039697265625,-0.06732177734375,0.9566650390625,-0.2785186767578125
1675001284349476900,8.840476806640625,-0.068389892578125,0.957489013671875,-0.2800445556640625
1675001284359558000,8.850557861328125,-0.06884765625,0.958465576171875,-0.2797088623046875
1675001284369639000,8.860638916015626,-0.0690765380859375,0.9599151611328125,-0.277862548828125
1675001284379718700,8.87071875,-0.0697021484375,0.9612579345703125,-0.275787353515625
1675001284389800000,8.880800048828124,-0.068359375,0.96014404296875,-0.2753448486328125
1675001284399881000,8.890880859375,-0.0698089599609375,0.9588623046875,-0.272979736328125
1675001284409962000,8.9009619140625,-0.07098388671875,0.959747314453125,-0.273529052734375
1675001284420041700,8.911041748046875,-0.0709075927734375,0.960662841796875,-0.2748260498046875
1675001284430122800,8.921122802734375,-0.070648193359375,0.95977783203125,-0.2766265869140625
1675001284440204000,8.9312041015625,-0.069488525390625,0.9595794677734375,-0.27447509765625
1675001284450283800,8.94128369140625,-0.0667266845703125,0.9618072509765625,-0.2729644775390625
1675001284460364800,8.95136474609375,-0.06585693359375,0.9625091552734375,-0.272308349609375
1675001284470445800,8.96144580078125,-0.065338134765625,0.960296630859375,-0.2700347900390625
1675001284480526000,8.971526123046875,-0.0649566650390625,0.9589691162109375,-0.2681884765625
1675001284490606800,8.98160693359375,-0.0664825439453125,0.9589385986328125,-0.2691650390625
1675001284500688000,8.99168798828125,-0.06781005859375,0.95916748046875,-0.269744873046875
1675001284510769000,9.001768798828126,-0.0665435791015625,0.96112060546875,-0.2677764892578125
1675001284520849000,9.011848876953126,-0.068389892578125,0.9629364013671875,-0.269622802734375
1675001284530930000,9.021929931640624,-0.06787109375,0.963409423828125,-0.2697601318359375
1675001284541011000,9.032010986328125,-0.0682830810546875,0.961395263671875,-0.2700653076171875
1675001284551091000,9.042091064453125,-0.0691680908203125,0.960662841796875,-0.2706451416015625
1675001284561171700,9.052171630859375,-0.0696563720703125,0.961517333984375,-0.26922607421875
1675001284571252700,9.062252685546875,-0.0701446533203125,0.9615631103515625,-0.27288818359375
1675001284581333800,9.072333740234376,-0.067474365234375,0.9620819091796875,-0.27471923828125
1675001284591414000,9.0824140625,-0.0673980712890625,0.9617462158203125,-0.2753753662109375
1675001284601494800,9.092494873046874,-0.0648956298828125,0.9603729248046875,-0.2756195068359375
1675001284611575800,9.102575927734375,-0.064544677734375,0.958831787109375,-0.2757568359375
1675001284621656000,9.112656005859375,-0.0648040771484375,0.961395263671875,-0.275177001953125
1675001284631737000,9.122737060546875,-0.0659332275390625,0.9606475830078125,-0.273284912109375
1675001284641817900,9.13281787109375,-0.06597900390625,0.962615966796875,-0.272918701171875
1675001284651899000,9.14289892578125,-0.065765380859375,0.963623046875,-0.27264404296875
1675001284661979000,9.152978759765626,-0.06463623046875,0.962493896484375,-0.2724609375
1675001284672059600,9.1630595703125,-0.0642547607421875,0.960418701171875,-0.2726593017578125
1675001284682141000,9.173140869140624,-0.0678863525390625,0.959747314453125,-0.270416259765625
1675001284692221000,9.183220947265625,-0.06842041015625,0.9564361572265625,-0.2725830078125
1675001284702302000,9.193302001953125,-0.06494140625,0.9567718505859375,-0.2701568603515625
1675001284712382700,9.2033828125,-0.064483642578125,0.960235595703125,-0.269622802734375
1675001284722463700,9.213463623046875,-0.064422607421875,0.9617919921875,-0.2722625732421875
1675001284732544000,9.2235439453125,-0.0652923583984375,0.961273193359375,-0.2743682861328125
1675001284742625000,9.233625,-0.0664825439453125,0.95941162109375,-0.2749176025390625
1675001284752705800,9.243705810546874,-0.0673065185546875,0.9581146240234375,-0.2769927978515625
1675001284762785800,9.253785888671874,-0.0655059814453125,0.9582672119140625,-0.280670166015625
1675001284772867000,9.2638671875,-0.06744384765625,0.957305908203125,-0.27960205078125
1675001284782947800,9.27394775390625,-0.0685272216796875,0.9584808349609375,-0.2782135009765625
1675001284793027800,9.28402783203125,-0.0693511962890625,0.959747314453125,-0.27972412109375
1675001284803108900,9.29410888671875,-0.070526123046875,0.96002197265625,-0.2799072265625
1675001284813190000,9.30418994140625,-0.068878173828125,0.9608001708984375,-0.279266357421875
1675001284823270700,9.314270751953124,-0.0679931640625,0.960845947265625,-0.282501220703125
1675001284833350700,9.3243505859375,-0.0699615478515625,0.962738037109375,-0.281341552734375
1675001284843431400,9.334431396484375,-0.068267822265625,0.9618988037109375,-0.279052734375
1675001284853512400,9.344512451171875,-0.0692901611328125,0.9615936279296875,-0.2754669189453125
1675001284863592700,9.3545927734375,-0.0667572021484375,0.9584197998046875,-0.2706298828125
1675001284873673500,9.364673583984375,-0.0652618408203125,0.9561920166015625,-0.269805908203125
1675001284883754500,9.37475439453125,-0.0650787353515625,0.954193115234375,-0.2712860107421875
1675001284893835500,9.38483544921875,-0.068450927734375,0.95416259765625,-0.2736663818359375
1675001284903915500,9.39491552734375,-0.0676116943359375,0.9545135498046875,-0.2740478515625
1675001284913996500,9.40499658203125,-0.0679931640625,0.9564361572265625,-0.276214599609375
1675001284924077600,9.41507763671875,-0.0685577392578125,0.960540771484375,-0.2776947021484375
1675001284934157600,9.425157470703125,-0.06964111328125,0.9636077880859375,-0.2786407470703125
1675001284944238600,9.435238525390625,-0.06683349609375,0.964874267578125,-0.279937744140625
1675001284954319400,9.4453193359375,-0.0682220458984375,0.964263916015625,-0.278778076171875
1675001284964400600,9.455400634765626,-0.06817626953125,0.9618377685546875,-0.27935791015625
1675001284974480600,9.465480712890624,-0.0666046142578125,0.958770751953125,-0.278717041015625
1675001284984561400,9.4755615234375,-0.06695556640625,0.9576568603515625,-0.2765960693359375
1675001284994642400,9.485642333984375,-0.066986083984375,0.9590911865234375,-0.27716064453125
1675001285004722700,9.49572265625,-0.0677032470703125,0.9600067138671875,-0.2756805419921875
1675001285014803700,9.5058037109375,-0.0691375732421875,0.9585723876953125,-0.2760009765625
1675001285024884500,9.515884521484375,-0.069091796875,0.9572906494140625,-0.27587890625
1675001285034964500,9.525964599609376,-0.0683135986328125,0.957611083984375,-0.275054931640625
1675001285045045500,9.53604541015625,-0.069488525390625,0.9575347900390625,-0.2759246826171875
1675001285055126500,9.54612646484375,-0.0696868896484375,0.9588623046875,-0.278076171875
1675001285065207600,9.55620751953125,-0.0686798095703125,0.9582672119140625,-0.2801055908203125
1675001285075287600,9.56628759765625,-0.0673370361328125,0.9597320556640625,-0.2811279296875
1675001285085368600,9.57636865234375,-0.068389892578125,0.9597320556640625,-0.2818450927734375
1675001285095449300,9.586449462890625,-0.0689544677734375,0.9612274169921875,-0.2830657958984375
1675001285105529600,9.596529541015625,-0.0681610107421875,0.9561920166015625,-0.28424072265625
1675001285115610600,9.606610595703126,-0.066741943359375,0.9560546875,-0.283233642578125
1675001285125691600,9.616691650390624,-0.0662689208984375,0.9556427001953125,-0.28271484375
1675001285135772400,9.6267724609375,-0.065826416015625,0.95465087890625,-0.28143310546875
1675001285145852700,9.636852783203125,-0.0638427734375,0.9559326171875,-0.28009033203125
1675001285155933700,9.64693359375,-0.06683349609375,0.9571075439453125,-0.279937744140625
1675001285166014500,9.657014404296875,-0.0698089599609375,0.958343505859375,-0.28271484375
1675001285176094500,9.667094482421875,-0.07061767578125,0.959686279296875,-0.280029296875
1675001285186175500,9.677175537109376,-0.071563720703125,0.958953857421875,-0.27923583984375
1675001285196256500,9.687256591796874,-0.07037353515625,0.9601287841796875,-0.2781982421875
1675001285206337500,9.697337646484375,-0.06939697265625,0.95703125,-0.2778472900390625
1675001285216417500,9.70741748046875,-0.0698089599609375,0.9565582275390625,-0.279266357421875
1675001285226498600,9.71749853515625,-0.0677032470703125,0.9580078125,-0.2781219482421875
1675001285236579600,9.72757958984375,-0.067962646484375,0.960052490234375,-0.279052734375
1675001285246659600,9.73765966796875,-0.0673675537109375,0.963775634765625,-0.2779083251953125
1675001285256740600,9.74774072265625,-0.06744384765625,0.9647064208984375,-0.27685546875
1675001285266821600,9.757821533203124,-0.0658111572265625,0.961639404296875,-0.27685546875
1675001285276902400,9.76790234375,-0.0662384033203125,0.9581451416015625,-0.277374267578125
1675001285286982700,9.777982666015625,-0.06561279296875,0.9557342529296875,-0.275848388671875
1675001285297063700,9.788063720703125,-0.06597900390625,0.9544677734375,-0.275970458984375
1675001285307144700,9.798144775390625,-0.0685272216796875,0.956390380859375,-0.275848388671875
1675001285317224400,9.808224365234375,-0.0697784423828125,0.9587249755859375,-0.2766876220703125
1675001285327305500,9.818305419921876,-0.069061279296875,0.96173095703125,-0.27838134765625
1675001285337386500,9.828386474609376,-0.0689697265625,0.963775634765625,-0.280303955078125
1675001285347466500,9.838466552734374,-0.0699005126953125,0.96307373046875,-0.2800445556640625
1675001285357547500,9.848547607421875,-0.0694580078125,0.961669921875,-0.278839111328125
1675001285367628500,9.858628662109375,-0.0704803466796875,0.9611968994140625,-0.2789154052734375
1675001285377709600,9.86870947265625,-0.069732666015625,0.95849609375,-0.2782440185546875
1675001285387789600,9.87878955078125,-0.0675048828125,0.95843505859375,-0.2755584716796875
1675001285397870600,9.88887060546875,-0.0686187744140625,0.95648193359375,-0.274658203125
1675001285407951600,9.89895166015625,-0.070159912109375,0.9564361572265625,-0.2758026123046875
1675001285418031400,9.90903125,-0.06884765625,0.9559783935546875,-0.274871826171875
1675001285428112400,9.9191123046875,-0.068695068359375,0.95709228515625,-0.27447509765625
1675001285438193700,9.929193603515625,-0.06744384765625,0.9571380615234375,-0.2740631103515625
1675001285448274700,9.939274658203125,-0.0682220458984375,0.9587554931640625,-0.27655029296875
1675001285458354400,9.9493544921875,-0.06884765625,0.960235595703125,-0.2745819091796875
1675001285468435500,9.959435546875,-0.067230224609375,0.9611053466796875,-0.2768402099609375
1675001285478516500,9.9695166015625,-0.066986083984375,0.9606781005859375,-0.2774505615234375
1675001285488596500,9.979596435546876,-0.067596435546875,0.957275390625,-0.2770843505859375
1675001285498677500,9.989677490234374,-0.06756591796875,0.959930419921875,-0.277069091796875
1675001285508758500,9.999758544921875,-0.06756591796875,0.9607391357421875,-0.2791595458984375
1675001285518838500,10.009838623046875,-0.06878662109375,0.9565277099609375,-0.2821502685546875
1675001285528919600,10.01991943359375,-0.066253662109375,0.9583740234375,-0.2808380126953125
1675001285539000600,10.03000048828125,-0.0675201416015625,0.95819091796875,-0.278472900390625
1675001285549081600,10.04008154296875,-0.069732666015625,0.9567413330078125,-0.277557373046875
1675001285559161600,10.05016162109375,-0.0730133056640625,0.9587554931640625,-0.2765045166015625
1675001285569242400,10.060242431640624,-0.073944091796875,0.9599609375,-0.276611328125
1675001285579323600,10.07032373046875,-0.073638916015625,0.9583282470703125,-0.2778167724609375
1675001285589403600,10.080403564453125,-0.0729217529296875,0.9590301513671875,-0.2801513671875
1675001285599484400,10.090484375,-0.0748138427734375,0.959228515625,-0.2816314697265625
1675001285609565400,10.1005654296875,-0.0738372802734375,0.9583740234375,-0.2819976806640625
1675001285619646500,10.110646484375,-0.0732269287109375,0.9562835693359375,-0.2830657958984375
1675001285629726700,10.120726806640626,-0.072845458984375,0.9567108154296875,-0.2812652587890625
1675001285639807500,10.130807373046874,-0.073516845703125,0.9569549560546875,-0.2795562744140625
1675001285649888500,10.140888427734374,-0.070709228515625,0.95849609375,-0.278106689453125
1675001285659968500,10.150968505859375,-0.0705718994140625,0.958740234375,-0.2779541015625
1675001285670049500,10.161049560546875,-0.0696258544921875,0.960357666015625,-0.27777099609375
1675001285680130600,10.171130615234375,-0.069488525390625,0.9598388671875,-0.2776336669921875
1675001285690211600,10.181211669921876,-0.0679779052734375,0.959014892578125,-0.2767181396484375
1675001285700291600,10.19129150390625,-0.066864013671875,0.958404541015625,-0.27679443359375
1675001285710372400,10.201372314453126,-0.0695037841796875,0.9583892822265625,-0.2749481201171875
1675001285720453400,10.211453369140624,-0.068145751953125,0.9579010009765625,-0.2733001708984375
1675001285730533600,10.22153369140625,-0.0705718994140625,0.9576416015625,-0.2742156982421875
1675001285740614700,10.23161474609375,-0.0720062255859375,0.958709716796875,-0.2752838134765625
1675001285750695400,10.2416953125,-0.0726165771484375,0.960296630859375,-0.275390625
1675001285760776400,10.2517763671875,-0.073150634765625,0.95941162109375,-0.27679443359375
1675001285770856700,10.261856689453126,-0.07342529296875,0.9599761962890625,-0.277313232421875
1675001285780937500,10.2719375,-0.0737457275390625,0.95947265625,-0.2784271240234375
1675001285791018500,10.2820185546875,-0.0755767822265625,0.956634521484375,-0.281036376953125
1675001285801098500,10.292098388671874,-0.074676513671875,0.9558563232421875,-0.280059814453125
1675001285811179500,10.302179443359375,-0.073486328125,0.957275390625,-0.279022216796875
1675001285821260500,10.312260498046875,-0.0728759765625,0.9588470458984375,-0.28057861328125
1675001285831340300,10.32234033203125,-0.06982421875,0.958465576171875,-0.282135009765625
1675001285841421300,10.33242138671875,-0.070648193359375,0.9578857421875,-0.282470703125
1675001285851502300,10.34250244140625,-0.070343017578125,0.957794189453125,-0.2827606201171875
1675001285861583400,10.352583251953124,-0.067169189453125,0.95782470703125,-0.2804718017578125
1675001285871663400,10.362663330078124,-0.065185546875,0.95648193359375,-0.2753448486328125
1675001285881744400,10.372744384765625,-0.065185546875,0.958343505859375,-0.27423095703125
1675001285891825400,10.382825439453125,-0.0670013427734375,0.9602203369140625,-0.274566650390625
1675001285901905400,10.392905517578125,-0.0691986083984375,0.959259033203125,-0.2736358642578125
1675001285911986400,10.402986328125,-0.0688934326171875,0.9583740234375,-0.2745819091796875
1675001285922067500,10.4130673828125,-0.070831298828125,0.959259033203125,-0.2754974365234375
1675001285932148500,10.4231484375,-0.0723724365234375,0.9589996337890625,-0.276031494140625
1675001285942228200,10.433228271484374,-0.07342529296875,0.9586639404296875,-0.2761688232421875
1675001285952309200,10.443309326171875,-0.072296142578125,0.9589385986328125,-0.277618408203125
1675001285962390500,10.453390625,-0.0740966796875,0.9586029052734375,-0.2779998779296875
1675001285972470300,10.46347021484375,-0.0716705322265625,0.9585113525390625,-0.2767791748046875
1675001285982551300,10.47355126953125,-0.07159423828125,0.9559783935546875,-0.2782745361328125
1675001285992632300,10.48363232421875,-0.07183837890625,0.956817626953125,-0.2794647216796875
1675001286002712600,10.493712646484376,-0.070343017578125,0.9564971923828125,-0.2811279296875
1675001286012793300,10.50379345703125,-0.071380615234375,0.9581146240234375,-0.281524658203125
1675001286022874400,10.513874267578124,-0.072998046875,0.958526611328125,-0.2820281982421875
1675001286032955400,10.523955322265625,-0.0725860595703125,0.9592437744140625,-0.2826690673828125
1675001286043035400,10.534035400390625,-0.0728759765625,0.9595184326171875,-0.28125
1675001286053116400,10.544116455078125,-0.0720672607421875,0.96063232421875,-0.2810821533203125
1675001286063197400,10.554197509765626,-0.06976318359375,0.9578399658203125,-0.2788848876953125
1675001286073277400,10.56427734375,-0.0682220458984375,0.956817626953125,-0.27734375
1675001286083358200,10.574358154296876,-0.0678558349609375,0.957244873046875,-0.2752838134765625
1675001286093439200,10.584439208984374,-0.0680999755859375,0.9577484130859375,-0.275543212890625
1675001286103520500,10.5945205078125,-0.0674591064453125,0.9598236083984375,-0.2759552001953125
1675001286113600500,10.6046005859375,-0.0685882568359375,0.9595794677734375,-0.2765350341796875
1675001286123681300,10.614681396484375,-0.069091796875,0.95953369140625,-0.27349853515625
1675001286133762300,10.62476220703125,-0.068450927734375,0.95782470703125,-0.2729034423828125
1675001286143842600,10.634842529296876,-0.0693511962890625,0.957305908203125,-0.2734527587890625
1675001286153923300,10.64492333984375,-0.07025146484375,0.9579925537109375,-0.27484130859375
1675001286164004400,10.65500439453125,-0.068695068359375,0.9581298828125,-0.276763916015625
1675001286174085400,10.66508544921875,-0.0702667236328125,0.957855224609375,-0.2778167724609375
1675001286184165400,10.675165283203125,-0.0704193115234375,0.960052490234375,-0.2796783447265625
1675001286194246400,10.685246337890625,-0.071685791015625,0.961151123046875,-0.27923583984375
1675001286204327400,10.695327392578125,-0.0702972412109375,0.96124267578125,-0.2794036865234375
1675001286214407400,10.705407470703125,-0.070709228515625,0.9598236083984375,-0.2802581787109375
1675001286224488400,10.715488525390626,-0.0712127685546875,0.95709228515625,-0.2781219482421875
1675001286234569200,10.7255693359375,-0.0706024169921875,0.9566802978515625,-0.2784271240234375
1675001286244649500,10.7356494140625,-0.0682830810546875,0.95654296875,-0.27728271484375
1675001286254730500,10.74573046875,-0.0684967041015625,0.95660400390625,-0.278472900390625
1675001286264811300,10.755811279296875,-0.069671630859375,0.958526611328125,-0.277984619140625
1675001286274892300,10.765892333984375,-0.0699005126953125,0.9578094482421875,-0.2801666259765625
1675001286284972500,10.77597265625,-0.070037841796875,0.958221435546875,-0.28021240234375
1675001286295053600,10.786053466796876,-0.0702667236328125,0.9574737548828125,-0.281646728515625
1675001286305134300,10.79613427734375,-0.0698699951171875,0.95770263671875,-0.2815399169921875
1675001286315214300,10.80621435546875,-0.0695037841796875,0.9571990966796875,-0.2787017822265625
1675001286325295400,10.81629541015625,-0.0687408447265625,0.957427978515625,-0.275726318359375
1675001286335376400,10.82637646484375,-0.067657470703125,0.95745849609375,-0.2719268798828125
1675001286345457400,10.83645751953125,-0.067779541015625,0.9585113525390625,-0.270355224609375
1675001286355537400,10.846537353515625,-0.06793212890625,0.9578704833984375,-0.2696685791015625
1675001286365618400,10.856618408203126,-0.0673980712890625,0.9589996337890625,-0.26751708984375
1675001286375699200,10.86669921875,-0.0679473876953125,0.9606781005859375,-0.270233154296875
1675001286385779500,10.876779541015624,-0.069122314453125,0.9620513916015625,-0.274749755859375
1675001286395860500,10.886860595703125,-0.069183349609375,0.9626617431640625,-0.276153564453125
1675001286405941500,10.89694140625,-0.0683441162109375,0.9612884521484375,-0.277130126953125
1675001286416022300,10.907022216796875,-0.0694580078125,0.9606170654296875,-0.2789459228515625
1675001286426102300,10.917102294921875,-0.0648040771484375,0.96337890625,-0.27984619140625
1675001286436183600,10.92718359375,-0.0693359375,0.9607086181640625,-0.2838287353515625
1675001286446264300,10.937264404296876,-0.07232666015625,0.9598846435546875,-0.281097412109375
1675001286456344300,10.94734423828125,-0.0754852294921875,0.9543304443359375,-0.2782440185546875
1675001286466425300,10.95742529296875,-0.0771484375,0.949737548828125,-0.2776031494140625
1675001286476506400,10.96750634765625,-0.0773773193359375,0.9493560791015625,-0.278900146484375
1675001286486586400,10.97758642578125,-0.08013916015625,0.9515228271484375,-0.2808990478515625
1675001286496667400,10.98766748046875,-0.08172607421875,0.96038818359375,-0.2835845947265625
1675001286506748400,10.99774853515625,-0.081298828125,0.9660797119140625,-0.2843017578125
1675001286516829400,11.007829345703126,-0.0792999267578125,0.9693756103515625,-0.2835693359375
1675001286526909400,11.017909423828126,-0.075164794921875,0.9661865234375,-0.2845611572265625
1675001286536990500,11.027990478515624,-0.07086181640625,0.959869384765625,-0.2834014892578125
1675001286547071500,11.038071533203125,-0.0682373046875,0.95440673828125,-0.280364990234375
1675001286557151200,11.048151123046875,-0.06658935546875,0.952423095703125,-0.27789306640625
1675001286567232300,11.058232177734375,-0.0626220703125,0.9521026611328125,-0.27752685546875
1675001286577313500,11.0683134765625,-0.061279296875,0.95367431640625,-0.2784576416015625
1675001286587394600,11.07839453125,-0.0601959228515625,0.952301025390625,-0.2790679931640625
1675001286597474300,11.088474365234376,-0.0604248046875,0.9544677734375,-0.2817840576171875
1675001286607555300,11.098555419921874,-0.0611114501953125,0.9569854736328125,-0.2825927734375
1675001286617636400,11.10863623046875,-0.065032958984375,0.9578399658203125,-0.28326416015625
1675001286627716400,11.11871630859375,-0.0676422119140625,0.959442138671875,-0.2841644287109375
1675001286637797400,11.12879736328125,-0.06976318359375,0.9619903564453125,-0.2852630615234375
1675001286647878400,11.13887841796875,-0.072235107421875,0.9622344970703125,-0.2867431640625
1675001286657959400,11.14895947265625,-0.0727081298828125,0.9630889892578125,-0.2804718017578125
1675001286668039400,11.159039306640626,-0.0749053955078125,0.9600677490234375,-0.2743377685546875
1675001286678120400,11.169120361328124,-0.0729522705078125,0.958740234375,-0.269683837890625
1675001286688201500,11.179201416015625,-0.073486328125,0.956024169921875,-0.2660369873046875
1675001286698281200,11.18928125,-0.0727386474609375,0.9547576904296875,-0.2672119140625
1675001286708362200,11.1993623046875,-0.0734405517578125,0.9542236328125,-0.2696685791015625
1675001286718443500,11.209443603515625,-0.0726776123046875,0.957366943359375,-0.2731781005859375
1675001286728523500,11.2195234375,-0.070892333984375,0.95928955078125,-0.2773895263671875
1675001286738604300,11.229604248046876,-0.0682830810546875,0.9624786376953125,-0.2799530029296875
1675001286748685300,11.239685302734374,-0.0658111572265625,0.9620208740234375,-0.2800140380859375
1675001286758766300,11.249766357421874,-0.063995361328125,0.9629974365234375,-0.278411865234375
1675001286768846300,11.259846435546875,-0.062896728515625,0.9630126953125,-0.277099609375
1675001286778927400,11.26992724609375,-0.061859130859375,0.96142578125,-0.276458740234375
1675001286789008400,11.28000830078125,-0.063018798828125,0.9595184326171875,-0.2757568359375
1675001286799088400,11.29008837890625,-0.06561279296875,0.9597625732421875,-0.271484375
1675001286809169400,11.30016943359375,-0.06787109375,0.9597320556640625,-0.2697296142578125
1675001286819250400,11.31025048828125,-0.068450927734375,0.96002197265625,-0.27032470703125
1675001286829330200,11.320330078125,-0.0703887939453125,0.9592437744140625,-0.2712860107421875
1675001286839411200,11.3304111328125,-0.073699951171875,0.958740234375,-0.271514892578125
1675001286849492200,11.3404921875,-0.0740203857421875,0.9577178955078125,-0.27294921875
1675001286859573200,11.3505732421875,-0.074432373046875,0.9590301513671875,-0.276275634765625
1675001286869653200,11.3606533203125,-0.073974609375,0.957733154296875,-0.2786407470703125
1675001286879734300,11.370734375,-0.0722808837890625,0.9592742919921875,-0.2814178466796875
1675001286889815300,11.380815185546876,-0.0718231201171875,0.959442138671875,-0.2823638916015625
1675001286899895300,11.390895263671876,-0.06951904296875,0.9580230712890625,-0.28106689453125
1675001286909976300,11.400976318359374,-0.068572998046875,0.9550628662109375,-0.283050537109375
1675001286920057300,11.411057373046875,-0.0684356689453125,0.9563751220703125,-0.286773681640625
1675001286930138400,11.421138427734375,-0.0687408447265625,0.95751953125,-0.28851318359375
1675001286940218000,11.431218017578125,-0.070098876953125,0.95623779296875,-0.2881927490234375
1675001286950299100,11.441299072265625,-0.0714569091796875,0.9564208984375,-0.2899932861328125
1675001286960380400,11.45138037109375,-0.069854736328125,0.958251953125,-0.2880401611328125
1675001286970460200,11.461460205078126,-0.0692596435546875,0.9576416015625,-0.2875823974609375
1675001286980541200,11.471541259765624,-0.0676727294921875,0.9547576904296875,-0.284149169921875
1675001286990622200,11.481622314453125,-0.067108154296875,0.9547576904296875,-0.2810211181640625
1675001287000703200,11.491703125,-0.069793701171875,0.9527740478515625,-0.2795257568359375
1675001287010783200,11.501783203125,-0.07061767578125,0.956390380859375,-0.2776031494140625
1675001287020864300,11.5118642578125,-0.0704498291015625,0.9562530517578125,-0.2793426513671875
1675001287030945300,11.5219453125,-0.0722198486328125,0.960479736328125,-0.2794189453125
1675001287041025300,11.532025390625,-0.0729827880859375,0.9617919921875,-0.28021240234375
1675001287051106300,11.542106201171874,-0.0699615478515625,0.9615325927734375,-0.2795257568359375
1675001287061187300,11.552187255859375,-0.0713653564453125,0.9609375,-0.277496337890625
1675001287071267300,11.562267333984375,-0.0704193115234375,0.9589080810546875,-0.2759857177734375
1675001287081348000,11.57234814453125,-0.0682830810546875,0.9572906494140625,-0.2746429443359375
1675001287091429000,11.58242919921875,-0.0683746337890625,0.957763671875,-0.2723846435546875
1675001287101510400,11.592510498046876,-0.068817138671875,0.9561767578125,-0.2743988037109375
1675001287111590100,11.602590087890626,-0.06915283203125,0.95733642578125,-0.27508544921875
1675001287121671200,11.612671142578124,-0.0704345703125,0.959014892578125,-0.2772674560546875
1675001287131752200,11.622752197265624,-0.0694732666015625,0.96063232421875,-0.2773895263671875
1675001287141832400,11.63283251953125,-0.06982421875,0.9603729248046875,-0.2800750732421875
1675001287151913200,11.642913330078125,-0.0697174072265625,0.9602203369140625,-0.27862548828125
1675001287161994200,11.652994140625,-0.0699920654296875,0.959197998046875,-0.2779541015625
1675001287172075300,11.6630751953125,-0.06890869140625,0.9596710205078125,-0.2761688232421875
1675001287182155300,11.6731552734375,-0.0676727294921875,0.959625244140625,-0.275848388671875
1675001287192236300,11.683236328125,-0.0686187744140625,0.95941162109375,-0.275543212890625
1675001287202317300,11.6933173828125,-0.069671630859375,0.9585723876953125,-0.2745361328125
1675001287212397300,11.703397216796875,-0.0699005126953125,0.95867919921875,-0.275787353515625
1675001287222478000,11.71347802734375,-0.070098876953125,0.9584503173828125,-0.2766571044921875
1675001287232559000,11.72355908203125,-0.0709381103515625,0.958587646484375,-0.2789764404296875
1675001287242639400,11.733639404296875,-0.0715179443359375,0.95849609375,-0.278656005859375
1675001287252720400,11.743720458984376,-0.071929931640625,0.9584197998046875,-0.2803955078125
1675001287262801200,11.75380126953125,-0.0701904296875,0.9588470458984375,-0.2810821533203125
1675001287272882200,11.763882080078124,-0.0699310302734375,0.9576873779296875,-0.2816925048828125
1675001287282962400,11.77396240234375,-0.0675048828125,0.9576568603515625,-0.277740478515625
1675001287293043500,11.78404345703125,-0.068756103515625,0.956024169921875,-0.2786102294921875
1675001287303124200,11.794124267578125,-0.0692901611328125,0.9569244384765625,-0.2787322998046875
1675001287313204200,11.804204345703125,-0.0705108642578125,0.956451416015625,-0.278839111328125
1675001287323285200,11.81428515625,-0.0720062255859375,0.9561920166015625,-0.282196044921875
1675001287333366300,11.8243662109375,-0.0712738037109375,0.958465576171875,-0.2840118408203125
1675001287343447300,11.834447265625,-0.070343017578125,0.9613494873046875,-0.2830963134765625
1675001287353527300,11.84452734375,-0.070404052734375,0.96002197265625,-0.283660888671875
1675001287363608300,11.8546083984375,-0.0718841552734375,0.9600067138671875,-0.281646728515625
1675001287373689000,11.864689208984375,-0.0724945068359375,0.9580535888671875,-0.281036376953125
1675001287383769300,11.874769287109375,-0.0723419189453125,0.95782470703125,-0.27996826171875
1675001287393850400,11.884850341796875,-0.07269287109375,0.9578704833984375,-0.2802734375
1675001287403931100,11.89493115234375,-0.0724029541015625,0.9572296142578125,-0.2795257568359375
1675001287414011100,11.90501123046875,-0.072174072265625,0.95751953125,-0.2765045166015625
1675001287424092400,11.915092529296874,-0.071044921875,0.9573211669921875,-0.2761688232421875
1675001287434173400,11.92517333984375,-0.0700225830078125,0.958221435546875,-0.276092529296875
1675001287444254200,11.935254150390625,-0.0707855224609375,0.9588470458984375,-0.27642822265625
1675001287454334200,11.945334228515625,-0.0706787109375,0.9579925537109375,-0.2793426513671875
1675001287464415200,11.955415283203125,-0.0692138671875,0.9591064453125,-0.2807464599609375
1675001287474496300,11.965496337890626,-0.0684967041015625,0.9596099853515625,-0.2807159423828125
1675001287484576300,11.975576171875,-0.0659332275390625,0.9575958251953125,-0.2798919677734375
1675001287494657300,11.9856572265625,-0.06500244140625,0.9573822021484375,-0.2779998779296875
1675001287504738300,11.99573828125,-0.0661773681640625,0.9559478759765625,-0.2758331298828125
1675001287514819000,12.005819091796875,-0.06683349609375,0.9566497802734375,-0.2769317626953125
1675001287524899300,12.0158994140625,-0.0686798095703125,0.958251953125,-0.280181884765625
1675001287534980400,12.02598046875,-0.0686492919921875,0.956512451171875,-0.2823486328125
1675001287545061400,12.036061279296876,-0.0692596435546875,0.95709228515625,-0.281158447265625
1675001287555141000,12.04614111328125,-0.0691070556640625,0.9573211669921875,-0.2812042236328125
1675001287565222100,12.05622216796875,-0.0697784423828125,0.95660400390625,-0.280364990234375
1675001287575303400,12.066303466796874,-0.0712127685546875,0.9568023681640625,-0.2789764404296875
1675001287585383200,12.076383056640625,-0.0721588134765625,0.957122802734375,-0.280548095703125
1675001287595464200,12.086464111328125,-0.073394775390625,0.958709716796875,-0.279388427734375
1675001287605545200,12.096545166015625,-0.072174072265625,0.9593048095703125,-0.280059814453125
1675001287615626200,12.106626220703125,-0.07366943359375,0.9604949951171875,-0.2821502685546875
1675001287625706200,12.116706298828126,-0.0724334716796875,0.9598388671875,-0.2830047607421875
1675001287635787300,12.126787353515626,-0.07135009765625,0.9573974609375,-0.281463623046875
1675001287645868300,12.136868408203124,-0.07061767578125,0.95745849609375,-0.279571533203125
1675001287655948300,12.1469482421875,-0.0706329345703125,0.9553680419921875,-0.278717041015625
1675001287666029300,12.157029296875,-0.072845458984375,0.9574432373046875,-0.278167724609375
1675001287676110300,12.1671103515625,-0.071502685546875,0.9592742919921875,-0.276397705078125
1675001287686191400,12.17719140625,-0.0728302001953125,0.95806884765625,-0.277374267578125
1675001287696271000,12.18727099609375,-0.0708770751953125,0.958831787109375,-0.2772064208984375
1675001287706352000,12.19735205078125,-0.070281982421875,0.95672607421875,-0.2777557373046875
1675001287716433400,12.207433349609374,-0.070587158203125,0.957305908203125,-0.2769317626953125
1675001287726513200,12.21751318359375,-0.07196044921875,0.958099365234375,-0.2769927978515625
1675001287736594200,12.22759423828125,-0.072601318359375,0.960205078125,-0.277496337890625
1675001287746675200,12.23767529296875,-0.072479248046875,0.9608612060546875,-0.276031494140625
1675001287756755500,12.24775537109375,-0.0710906982421875,0.960205078125,-0.2765045166015625
1675001287766836200,12.257836181640625,-0.070037841796875,0.960693359375,-0.27838134765625
1675001287776917200,12.267917236328126,-0.070037841796875,0.9598388671875,-0.277130126953125
1675001287786998300,12.277998291015624,-0.07098388671875,0.9572601318359375,-0.277740478515625
1675001287797078300,12.288078369140624,-0.0721282958984375,0.957122802734375,-0.280303955078125
1675001287807159300,12.2981591796875,-0.0716094970703125,0.9576263427734375,-0.2804718017578125
1675001287817240300,12.308240234375,-0.07183837890625,0.9568939208984375,-0.2773895263671875
1675001287827320600,12.318320556640625,-0.070098876953125,0.955413818359375,-0.2770233154296875
1675001287837401600,12.328401611328125,-0.0695343017578125,0.9549560546875,-0.2769927978515625
1675001287847482600,12.338482666015626,-0.0699462890625,0.9576263427734375,-0.2778472900390625
1675001287857563600,12.348563720703124,-0.0720062255859375,0.958251953125,-0.2793426513671875
1675001287867643600,12.3586435546875,-0.07281494140625,0.95855712890625,-0.2788848876953125
1675001287877724700,12.368724609375,-0.0720977783203125,0.96051025390625,-0.2799835205078125
1675001287887805700,12.3788056640625,-0.0735015869140625,0.957183837890625,-0.281585693359375
1675001287897885400,12.388885498046875,-0.0733489990234375,0.9571685791015625,-0.2835693359375
1675001287907966700,12.398966796875,-0.0727081298828125,0.9578857421875,-0.283111572265625
1675001287918047700,12.4090478515625,-0.0739288330078125,0.9584197998046875,-0.281707763671875
1675001287928127500,12.41912744140625,-0.0727996826171875,0.95745849609375,-0.280364990234375
1675001287938208500,12.42920849609375,-0.0713958740234375,0.9590301513671875,-0.2784271240234375
1675001287948289500,12.43928955078125,-0.0716400146484375,0.9585113525390625,-0.2765960693359375
1675001287958370600,12.44937060546875,-0.0704803466796875,0.9597320556640625,-0.2755889892578125
1675001287968450600,12.459450439453125,-0.072265625,0.955322265625,-0.275177001953125
1675001287978531600,12.469531494140625,-0.0707855224609375,0.9535064697265625,-0.2749481201171875
1675001287988612600,12.479612548828126,-0.07232666015625,0.9566497802734375,-0.275299072265625
1675001287998692600,12.489692626953126,-0.0707855224609375,0.958831787109375,-0.2774200439453125
1675001288008773600,12.499773681640624,-0.07183837890625,0.9604339599609375,-0.2799072265625
1675001288018854700,12.509854736328125,-0.072296142578125,0.9597625732421875,-0.2782745361328125
1675001288028934700,12.5199345703125,-0.072052001953125,0.95684814453125,-0.278564453125
1675001288039015400,12.530015380859375,-0.07159423828125,0.9549102783203125,-0.2761383056640625
1675001288049096700,12.5400966796875,-0.071624755859375,0.954071044921875,-0.2773895263671875
1675001288059177700,12.550177734375,-0.0699615478515625,0.955657958984375,-0.2809295654296875
1675001288069257700,12.5602578125,-0.070281982421875,0.959259033203125,-0.285430908203125
1675001288079338500,12.57033837890625,-0.07159423828125,0.960540771484375,-0.28521728515625
1675001288089419500,12.58041943359375,-0.0734710693359375,0.9600830078125,-0.2854766845703125
1675001288099499800,12.590499755859375,-0.073974609375,0.9583587646484375,-0.2823638916015625
1675001288109580500,12.60058056640625,-0.0740814208984375,0.9585113525390625,-0.282196044921875
1675001288119661600,12.61066162109375,-0.0729522705078125,0.95623779296875,-0.27947998046875
1675001288129742600,12.62074267578125,-0.0725250244140625,0.957977294921875,-0.2797088623046875
1675001288139822800,12.63082275390625,-0.0721282958984375,0.9558868408203125,-0.2802886962890625
1675001288149903600,12.640903564453126,-0.0731964111328125,0.9567718505859375,-0.27813720703125
1675001288159984600,12.650984619140624,-0.072540283203125,0.95574951171875,-0.2796783447265625
1675001288170064600,12.661064697265624,-0.0709381103515625,0.9572601318359375,-0.2798004150390625
1675001288180145700,12.671145751953125,-0.0711822509765625,0.9587249755859375,-0.2809906005859375
1675001288190226400,12.681226318359375,-0.0694122314453125,0.9590911865234375,-0.281463623046875
1675001288200307700,12.6913076171875,-0.069793701171875,0.959259033203125,-0.27886962890625
1675001288210387700,12.7013876953125,-0.0665283203125,0.9588623046875,-0.2770233154296875
1675001288220468500,12.711468505859376,-0.0673065185546875,0.9577789306640625,-0.273895263671875
1675001288230549500,12.721549560546874,-0.067901611328125,0.9586639404296875,-0.2754364013671875
1675001288240629800,12.731629638671874,-0.06866455078125,0.9547882080078125,-0.2771453857421875
1675001288250710800,12.741710693359375,-0.069549560546875,0.9544830322265625,-0.2802581787109375
1675001288260791600,12.75179150390625,-0.07171630859375,0.956756591796875,-0.2806396484375
1675001288270871600,12.76187158203125,-0.0733489990234375,0.95794677734375,-0.2819366455078125
1675001288280952600,12.77195263671875,-0.0736541748046875,0.957794189453125,-0.2814788818359375
1675001288291033900,12.782033935546876,-0.07330322265625,0.9581451416015625,-0.28143310546875
1675001288301113600,12.792113525390626,-0.07183837890625,0.9592132568359375,-0.278472900390625
1675001288311194600,12.802194580078124,-0.0705108642578125,0.9571533203125,-0.2780609130859375
1675001288321275600,12.812275634765625,-0.0693511962890625,0.95654296875,-0.27783203125
1675001288331356400,12.8223564453125,-0.0688629150390625,0.957427978515625,-0.2806854248046875
1675001288341436700,12.832436767578125,-0.0686798095703125,0.9580230712890625,-0.282470703125
1675001288351517700,12.842517578125,-0.0699615478515625,0.95709228515625,-0.283905029296875
1675001288361598700,12.8525986328125,-0.0696563720703125,0.95660400390625,-0.2855224609375
1675001288371678500,12.862678466796876,-0.070068359375,0.957550048828125,-0.28436279296875
1675001288381759700,12.872759765625,-0.070556640625,0.9566497802734375,-0.2819976806640625
1675001288391840800,12.8828408203125,-0.0688323974609375,0.9562835693359375,-0.2808074951171875
1675001288401921800,12.892921875,-0.0689697265625,0.95562744140625,-0.2821044921875
1675001288412001500,12.90300146484375,-0.0696868896484375,0.9549560546875,-0.280120849609375
1675001288422082600,12.91308251953125,-0.0697174072265625,0.956573486328125,-0.2796783447265625
1675001288432163800,12.923163818359376,-0.0694580078125,0.957244873046875,-0.280487060546875
1675001288442243600,12.93324365234375,-0.069366455078125,0.958343505859375,-0.280364990234375
1675001288452324600,12.94332470703125,-0.0701141357421875,0.96173095703125,-0.2807464599609375
1675001288462405600,12.953405517578124,-0.0684814453125,0.9615020751953125,-0.28106689453125
1675001288472485600,12.963485595703125,-0.0684356689453125,0.96185302734375,-0.2803497314453125
1675001288482566700,12.973566650390625,-0.0694732666015625,0.9596405029296875,-0.279510498046875
1675001288492647700,12.983647705078125,-0.0665283203125,0.95684814453125,-0.2785797119140625
1675001288502728700,12.993728759765625,-0.065521240234375,0.9568328857421875,-0.277099609375
