timestamp,acc-x,acc-y,acc-z,gyr-x,gyr-y,gyr-z,mag-x,mag-y,mag-z
1686918330,-0.5443671415,2.5818555854,9.6574320136,-1.4465288840529003,4.816672403191351,-0.7681630370340043,-47.33995907629348,12.861736334405144,-97.82227418883367
1686918330,-0.5407779076,2.5914268758000003,9.6538427797,-0.012980886311707827,-0.047342055960346185,-0.0035124751196385882,-47.33995907629348,12.861736334405144,-97.82227418883367
1686918330,-0.5407779076,2.5914268758000003,9.6538427797,-0.012980886311707827,-0.047342055960346185,-0.0035124751196385882,-47.33995907629348,12.861736334405144,-97.82227418883367
1686918330,-0.526420972,2.5758735289,9.6442714893,-0.012064588454410803,-0.04581489286485115,-0.004734205596034618,-47.33995907629348,12.861736334405144,-97.82227418883367
1686918330,-0.526420972,2.5758735289,9.6442714893,-0.012064588454410803,-0.04581489286485115,-0.004734205596034618,-47.33995907629348,12.861736334405144,-97.82227418883367
1686918330,-0.5407779076,2.5710878837,9.6586284249,-0.013439035240356337,-0.04810563750809371,-0.005497787143782138,-47.33995907629348,12.861736334405144,-97.82227418883367
1686918330,-0.5407779076,2.5710878837,9.6586284249,-0.013439035240356337,-0.04810563750809371,-0.005497787143782138,-47.33995907629348,12.861736334405144,-97.82227418883367
1686918330,-0.5359922624,2.5878376418999998,9.6418786667,-0.012370021073509811,-0.04612032548395016,-0.003665191429188092,-47.33995907629348,12.861736334405144,-97.82227418883367
1686918330,-0.5359922624,2.5878376418999998,9.6418786667,-0.012370021073509811,-0.04612032548395016,-0.003665191429188092,-47.33995907629348,12.861736334405144,-97.82227418883367
1686918330,-0.5359922624,2.5818555854,9.6526463684,-0.012828170002158322,-0.047952921198544204,-0.006261368691529657,-47.33995907629348,12.861736334405144,-97.82227418883367
1686918330,-0.5359922624,2.5818555854,9.6526463684,-0.012828170002158322,-0.047952921198544204,-0.006261368691529657,-47.33995907629348,12.861736334405144,-97.82227418883367
1686918330,-0.5359922624,2.5794627628,9.6562356023,-0.013286318930806833,-0.04612032548395016,-0.004886921905584123,-47.33995907629348,12.861736334405144,-97.82227418883367
1686918330,-0.5359922624,2.5794627628,9.6562356023,-0.013286318930806833,-0.04612032548395016,-0.004886921905584123,-47.33995907629348,12.861736334405144,-97.82227418883367
1686918330,-0.5347958510999999,2.5926232871,9.6502535458,-0.012980886311707827,-0.04642575810304917,-0.0032070425005395805,-47.33995907629348,12.861736334405144,-97.82227418883367
1686918330,-0.5347958510999999,2.5926232871,9.6502535458,-0.012980886311707827,-0.04642575810304917,-0.0032070425005395805,-47.33995907629348,12.861736334405144,-97.82227418883367
1686918330,-0.5347958510999999,2.5878376418999998,9.6538427797,-0.012980886311707827,-0.04657847441259867,-0.005345070834232635,-47.33995907629348,12.861736334405144,-97.82227418883367
1686918330,-0.5347958510999999,2.5878376418999998,9.6538427797,-0.012980886311707827,-0.04657847441259867,-0.005345070834232635,-47.33995907629348,12.861736334405144,-97.82227418883367
1686918330,-0.5335994398,2.5890340532,9.6394858441,-0.01313360262125733,-0.04642575810304917,-0.004886921905584123,-47.33995907629348,12.861736334405144,-97.82227418883367
1686918330,-0.5335994398,2.5890340532,9.6394858441,-0.01313360262125733,-0.04642575810304917,-0.004886921905584123,-47.33995907629348,12.861736334405144,-97.82227418883367
1686918330,-0.5467599640999999,2.572284295,9.6562356023,-0.01389718416900485,-0.047189339650796684,-0.006261368691529657,-47.33995907629348,12.861736334405144,-97.82227418883367
1686918330,-0.5467599640999999,2.572284295,9.6562356023,-0.01389718416900485,-0.047189339650796684,-0.006261368691529657,-47.33995907629348,12.861736334405144,-97.82227418883367
1686918330,-0.5467599640999999,2.5615165933,9.6490571345,-0.012828170002158322,-0.045356743936202634,-0.005650503453331642,-47.33995907629348,12.861736334405144,-97.82227418883367
1686918330,-0.5467599640999999,2.5615165933,9.6490571345,-0.012828170002158322,-0.045356743936202634,-0.005650503453331642,-47.33995907629348,12.861736334405144,-97.82227418883367
1686918330,-0.538385085,2.5698914723999997,9.667003304,-0.01313360262125733,-0.047342055960346185,-0.004123340357836604,-47.33995907629348,12.861736334405144,-97.82227418883367
1686918330,-0.538385085,2.5698914723999997,9.667003304,-0.01313360262125733,-0.047342055960346185,-0.004123340357836604,-47.33995907629348,12.861736334405144,-97.82227418883367
1686918330,-0.5419743189,2.572284295,9.6454679006,-0.012064588454410803,-0.047342055960346185,-0.005039638215133627,-47.33995907629348,12.861736334405144,-97.82227418883367
1686918330,-0.5419743189,2.572284295,9.6454679006,-0.012064588454410803,-0.047342055960346185,-0.005039638215133627,-47.33995907629348,12.861736334405144,-97.82227418883367
1686918330,-0.5467599640999999,2.5806591741,9.646664311899999,-0.012828170002158322,-0.047342055960346185,-0.004581489286485115,-47.33995907629348,12.861736334405144,-97.82227418883367
1686918330,-0.5467599640999999,2.5806591741,9.646664311899999,-0.012828170002158322,-0.047342055960346185,-0.004581489286485115,-47.33995907629348,12.861736334405144,-97.82227418883367
1686918330,-0.5312066172,2.5926232871,9.6562356023,-0.012828170002158322,-0.047342055960346185,-0.004276056667386108,-47.33995907629348,12.861736334405144,-97.82227418883367
1686918331,-0.5312066172,2.5926232871,9.6562356023,-0.012828170002158322,-0.047342055960346185,-0.004276056667386108,-47.33995907629348,12.861736334405144,-97.82227418883367
1686918331,-0.5347958510999999,2.5950161097,9.6454679006,-0.012522737383059314,-0.04673119072214818,-0.0039706240482871,-47.33995907629348,12.861736334405144,-97.82227418883367
1686918331,-0.5347958510999999,2.5950161097,9.6454679006,-0.012522737383059314,-0.04673119072214818,-0.0039706240482871,-47.33995907629348,12.861736334405144,-97.82227418883367
1686918331,-0.538385085,2.5926232871,9.6562356023,-0.012828170002158322,-0.04642575810304917,-0.004581489286485115,-47.33995907629348,12.861736334405144,-97.82227418883367
1686918331,-0.538385085,2.5926232871,9.6562356023,-0.012828170002158322,-0.04612032548395016,-0.004734205596034618,-47.33995907629348,12.861736334405144,-97.82227418883367
1686918331,-0.5347958510999999,2.5890340532,9.643075077999999,-0.012828170002158322,-0.04612032548395016,-0.004734205596034618,-47.33995907629348,12.861736334405144,-97.82227418883367
1686918331,-0.538385085,2.5639094158999995,9.661021247499999,-0.013439035240356337,-0.04657847441259867,-0.005650503453331642,-47.33995907629348,12.861736334405144,-97.82227418883367
1686918331,-0.538385085,2.5639094158999995,9.661021247499999,-0.012828170002158322,-0.04627304179349966,-0.005039638215133627,-47.33995907629348,12.861736334405144,-97.82227418883367
1686918331,-0.5527420206,2.560320182,9.6514499571,-0.012828170002158322,-0.04627304179349966,-0.005039638215133627,-47.33995907629348,12.861736334405144,-97.82227418883367
1686918331,-0.5467599640999999,2.5746771176,9.6478607232,-0.012980886311707827,-0.047189339650796684,-0.003817907738737596,-47.33995907629348,12.861736334405144,-97.82227418883367
1686918331,-0.5467599640999999,2.5746771176,9.6478607232,-0.012980886311707827,-0.047189339650796684,-0.003817907738737596,-47.33995907629348,12.861736334405144,-97.82227418883367
1686918331,-0.5347958510999999,2.5770699402,9.6526463684,-0.012980886311707827,-0.045662176555301644,-0.004276056667386108,-47.33995907629348,12.861736334405144,-97.82227418883367
1686918331,-0.5347958510999999,2.5770699402,9.6526463684,-0.012980886311707827,-0.045662176555301644,-0.004276056667386108,-47.33995907629348,12.861736334405144,-97.82227418883367
1686918331,-0.5312066172,2.5938196984,9.6454679006,-0.012217304763960306,-0.047036623341247176,-0.0035124751196385882,-47.33995907629348,12.861736334405144,-97.82227418883367
1686918331,-0.5312066172,2.5938196984,9.6454679006,-0.012217304763960306,-0.047036623341247176,-0.0035124751196385882,-47.33995907629348,12.861736334405144,-97.82227418883367
1686918331,-0.5300102059,2.596212521,9.643075077999999,-0.011911872144861299,-0.047036623341247176,-0.004428772976935611,-47.33995907629348,12.861736334405144,-97.82227418883367
1686918331,-0.5300102059,2.596212521,9.643075077999999,-0.011911872144861299,-0.047036623341247176,-0.004428772976935611,-47.33995907629348,12.861736334405144,-97.82227418883367
1686918331,-0.5300102059,2.596212521,9.6598248362,-0.01313360262125733,-0.047952921198544204,-0.005803219762881146,-47.33995907629348,12.861736334405144,-97.82227418883367
1686918331,-0.5347958510999999,2.5794627628,9.6598248362,-0.01313360262125733,-0.047952921198544204,-0.005803219762881146,-47.33995907629348,12.861736334405144,-97.82227418883367
1686918331,-0.5347958510999999,2.5794627628,9.6598248362,-0.012980886311707827,-0.04612032548395016,-0.004581489286485115,-47.33995907629348,12.861736334405144,-97.82227418883367
1686918331,-0.5347958510999999,2.5782663514999995,9.646664311899999,-0.012980886311707827,-0.04612032548395016,-0.004581489286485115,-47.33995907629348,12.861736334405144,-97.82227418883367
1686918331,-0.5347958510999999,2.5782663514999995,9.646664311899999,-0.01313360262125733,-0.04581489286485115,-0.004734205596034618,-47.33995907629348,12.861736334405144,-97.82227418883367
1686918331,-0.5443671415,2.5746771176,9.6502535458,-0.01313360262125733,-0.04581489286485115,-0.004734205596034618,-47.33995907629348,12.861736334405144,-97.82227418883367
1686918331,-0.5443671415,2.5746771176,9.6502535458,-0.012980886311707827,-0.04642575810304917,-0.005039638215133627,-47.33995907629348,12.861736334405144,-97.82227418883367
1686918331,-0.5503491979999999,2.5806591741,9.646664311899999,-0.012980886311707827,-0.04642575810304917,-0.005039638215133627,-47.33995907629348,12.861736334405144,-97.82227418883367
1686918331,-0.5503491979999999,2.5806591741,9.646664311899999,-0.012980886311707827,-0.04642575810304917,-0.004581489286485115,-47.33995907629348,12.861736334405144,-97.82227418883367
1686918331,-0.5395814963,2.5806591741,9.655039191,-0.012370021073509811,-0.04673119072214818,-0.004581489286485115,-47.33995907629348,12.861736334405144,-97.82227418883367
1686918331,-0.5395814963,2.5806591741,9.655039191,-0.012370021073509811,-0.04673119072214818,-0.004581489286485115,-47.33995907629348,12.861736334405144,-97.82227418883367
1686918331,-0.5419743189,2.5818555854,9.6622176588,-0.012980886311707827,-0.047036623341247176,-0.004581489286485115,-47.33995907629348,12.861736334405144,-97.82227418883367
1686918331,-0.5419743189,2.5818555854,9.6622176588,-0.012980886311707827,-0.047036623341247176,-0.004581489286485115,-47.33995907629348,12.861736334405144,-97.82227418883367
1686918331,-0.5347958510999999,2.5878376418999998,9.643075077999999,-0.012828170002158322,-0.04657847441259867,-0.004581489286485115,-47.33995907629348,12.861736334405144,-97.82227418883367
1686918331,-0.5347958510999999,2.5878376418999998,9.643075077999999,-0.012828170002158322,-0.04657847441259867,-0.004581489286485115,-47.33995907629348,12.861736334405144,-97.82227418883367
1686918331,-0.5335994398,2.5746771176,9.6526463684,-0.013286318930806833,-0.0478002048889947,-0.005497787143782138,-47.33995907629348,12.861736334405144,-97.82227418883367
1686918331,-0.5335994398,2.5746771176,9.6526463684,-0.013286318930806833,-0.0478002048889947,-0.005497787143782138,-47.33995907629348,12.861736334405144,-97.82227418883367
1686918331,-0.5324030285,2.5651058272,9.6514499571,-0.012675453692608817,-0.046883907031697675,-0.00519235452468313,-47.33995907629348,12.861736334405144,-97.82227418883367
1686918331,-0.5324030285,2.5651058272,9.6514499571,-0.012675453692608817,-0.046883907031697675,-0.00519235452468313,-47.33995907629348,12.861736334405144,-97.82227418883367
1686918331,-0.5491527867,2.572284295,9.646664311899999,-0.012370021073509811,-0.04596760917440065,-0.0039706240482871,-47.33995907629348,12.861736334405144,-97.82227418883367
1686918331,-0.5491527867,2.572284295,9.646664311899999,-0.012370021073509811,-0.04596760917440065,-0.0039706240482871,-47.33995907629348,12.861736334405144,-97.82227418883367
1686918331,-0.5431707302,2.5794627628,9.6478607232,-0.012370021073509811,-0.04596760917440065,-0.004276056667386108,-47.33995907629348,12.861736334405144,-97.82227418883367
1686918331,-0.5431707302,2.5794627628,9.6478607232,-0.012370021073509811,-0.04596760917440065,-0.004276056667386108,-47.33995907629348,12.861736334405144,-97.82227418883367
1686918331,-0.5443671415,2.5794627628,9.6502535458,-0.012522737383059314,-0.047494772269895694,-0.004581489286485115,-47.33995907629348,12.861736334405144,-97.82227418883367
1686918331,-0.5443671415,2.5794627628,9.6502535458,-0.012370021073509811,-0.04627304179349966,-0.004581489286485115,-47.33995907629348,12.861736334405144,-97.82227418883367
1686918331,-0.5288137946,2.5806591741,9.6514499571,-0.012370021073509811,-0.04627304179349966,-0.004581489286485115,-47.33995907629348,12.861736334405144,-97.82227418883367
1686918331,-0.5288137946,2.5806591741,9.6514499571,-0.012370021073509811,-0.04627304179349966,-0.004581489286485115,-47.33995907629348,12.861736334405144,-97.82227418883367
1686918331,-0.5300102059,2.5866412306,9.6634140701,-0.012828170002158322,-0.0478002048889947,-0.0039706240482871,-47.33995907629348,12.861736334405144,-97.82227418883367
1686918331,-0.5300102059,2.5866412306,9.6634140701,-0.012828170002158322,-0.0478002048889947,-0.0039706240482871,-47.33995907629348,12.861736334405144,-97.82227418883367
1686918331,-0.5300102059,2.5938196984,9.6418786667,-0.012064588454410803,-0.04596760917440065,-0.004428772976935611,-47.33995907629348,12.861736334405144,-97.82227418883367
1686918331,-0.5300102059,2.5938196984,9.6418786667,-0.012064588454410803,-0.04596760917440065,-0.004428772976935611,-47.33995907629348,12.861736334405144,-97.82227418883367
1686918331,-0.5431707302,2.5902304645,9.6598248362,-0.012828170002158322,-0.04657847441259867,-0.005039638215133627,-47.33995907629348,12.861736334405144,-97.82227418883367
1686918331,-0.5431707302,2.5902304645,9.6598248362,-0.012828170002158322,-0.04657847441259867,-0.005039638215133627,-47.33995907629348,12.861736334405144,-97.82227418883367
1686918331,-0.5395814963,2.5866412306,9.6562356023,-0.012980886311707827,-0.047036623341247176,-0.005039638215133627,-47.33995907629348,12.861736334405144,-97.82227418883367
1686918331,-0.5395814963,2.5866412306,9.6562356023,-0.012980886311707827,-0.047036623341247176,-0.005039638215133627,-47.33995907629348,12.861736334405144,-97.82227418883367
1686918331,-0.5515456093,2.5746771176,9.6514499571,-0.013439035240356337,-0.047189339650796684,-0.005803219762881146,-47.33995907629348,12.861736334405144,-97.82227418883367
1686918331,-0.5515456093,2.5746771176,9.6514499571,-0.013439035240356337,-0.047189339650796684,-0.005803219762881146,-47.33995907629348,12.861736334405144,-97.82227418883367
1686918331,-0.5419743189,2.5615165933,9.6681997153,-0.014049900478554353,-0.047342055960346185,-0.004886921905584123,-47.33995907629348,12.861736334405144,-97.82227418883367
1686918331,-0.5419743189,2.5615165933,9.6681997153,-0.014049900478554353,-0.047342055960346185,-0.004886921905584123,-47.33995907629348,12.861736334405144,-97.82227418883367
1686918331,-0.5359922624,2.572284295,9.6478607232,-0.012980886311707827,-0.04642575810304917,-0.004123340357836604,-47.33995907629348,12.861736334405144,-97.82227418883367
1686918331,-0.5359922624,2.572284295,9.6478607232,-0.012980886311707827,-0.04642575810304917,-0.004123340357836604,-47.33995907629348,12.861736334405144,-97.82227418883367
1686918331,-0.5347958510999999,2.5710878837,9.6586284249,-0.012675453692608817,-0.047494772269895694,-0.004428772976935611,-47.33995907629348,12.861736334405144,-97.82227418883367
1686918331,-0.5347958510999999,2.5710878837,9.6586284249,-0.012675453692608817,-0.047494772269895694,-0.004428772976935611,-47.33995907629348,12.861736334405144,-97.82227418883367
1686918331,-0.5335994398,2.5830519966999996,9.6586284249,-0.012217304763960306,-0.047647488579445195,-0.004276056667386108,-47.33995907629348,12.861736334405144,-97.82227418883367
1686918331,-0.5335994398,2.5830519966999996,9.6586284249,-0.012217304763960306,-0.047647488579445195,-0.004276056667386108,-47.33995907629348,12.861736334405144,-97.82227418883367
1686918331,-0.5467599640999999,2.5986053435999996,9.6514499571,-0.011911872144861299,-0.0478002048889947,-0.004581489286485115,-47.33995907629348,12.861736334405144,-97.82227418883367
1686918331,-0.5467599640999999,2.5986053435999996,9.6514499571,-0.011911872144861299,-0.0478002048889947,-0.004581489286485115,-47.33995907629348,12.861736334405144,-97.82227418883367
1686918331,-0.5407779076,2.5914268758000003,9.6574320136,-0.012980886311707827,-0.047342055960346185,-0.005803219762881146,-47.33995907629348,12.861736334405144,-97.82227418883367
1686918331,-0.5407779076,2.5914268758000003,9.6574320136,-0.012980886311707827,-0.047342055960346185,-0.005803219762881146,-47.33995907629348,12.861736334405144,-97.82227418883367
1686918331,-0.5479563754,2.5818555854,9.6538427797,-0.012828170002158322,-0.047036623341247176,-0.005497787143782138,-47.33995907629348,12.861736334405144,-97.82227418883367
1686918331,-0.5479563754,2.5818555854,9.6538427797,-0.012828170002158322,-0.047036623341247176,-0.005497787143782138,-47.33995907629348,12.861736334405144,-97.82227418883367
1686918331,-0.5359922624,2.5746771176,9.661021247499999,-0.01389718416900485,-0.048258353817643214,-0.004734205596034618,-47.33995907629348,12.861736334405144,-97.82227418883367
1686918331,-0.5359922624,2.5746771176,9.661021247499999,-0.01389718416900485,-0.048258353817643214,-0.004734205596034618,-47.33995907629348,12.861736334405144,-97.82227418883367
1686918331,-0.5276173833,2.572284295,9.655039191,-0.012980886311707827,-0.04657847441259867,-0.004581489286485115,-47.33995907629348,12.861736334405144,-97.82227418883367
1686918331,-0.5276173833,2.572284295,9.655039191,-0.012980886311707827,-0.04657847441259867,-0.004581489286485115,-47.33995907629348,12.861736334405144,-97.82227418883367
1686918331,-0.5312066172,2.560320182,9.6646104814,-0.012828170002158322,-0.047952921198544204,-0.005803219762881146,-47.33995907629348,12.861736334405144,-97.82227418883367
1686918331,-0.5312066172,2.560320182,9.6646104814,-0.012828170002158322,-0.047952921198544204,-0.005803219762881146,-47.33995907629348,12.861736334405144,-97.82227418883367
1686918331,-0.5347958510999999,2.5782663514999995,9.6622176588,-0.012522737383059314,-0.046883907031697675,-0.004428772976935611,-47.33995907629348,12.861736334405144,-97.82227418883367
1686918331,-0.5347958510999999,2.5782663514999995,9.6622176588,-0.012522737383059314,-0.046883907031697675,-0.004428772976935611,-47.33995907629348,12.861736334405144,-97.82227418883367
1686918331,-0.5503491979999999,2.5878376418999998,9.646664311899999,-0.011759155835311794,-0.04642575810304917,-0.004276056667386108,-47.33995907629348,12.861736334405144,-97.82227418883367
1686918331,-0.5503491979999999,2.5878376418999998,9.646664311899999,-0.011759155835311794,-0.04642575810304917,-0.004276056667386108,-47.33995907629348,12.861736334405144,-97.82227418883367
1686918331,-0.5503491979999999,2.5890340532,9.661021247499999,-0.012370021073509811,-0.047036623341247176,-0.005345070834232635,-47.33995907629348,12.861736334405144,-97.82227418883367
1686918331,-0.5455635528,2.5890340532,9.661021247499999,-0.012370021073509811,-0.047036623341247176,-0.005345070834232635,-47.33995907629348,12.861736334405144,-97.82227418883367
1686918331,-0.5455635528,2.5890340532,9.661021247499999,-0.012217304763960306,-0.047036623341247176,-0.004276056667386108,-47.33995907629348,12.861736334405144,-97.82227418883367
1686918331,-0.5479563754,2.6009981662,9.6586284249,-0.012217304763960306,-0.047036623341247176,-0.004276056667386108,-47.33995907629348,12.861736334405144,-97.82227418883367
1686918331,-0.5479563754,2.6009981662,9.6586284249,-0.012980886311707827,-0.047036623341247176,-0.00519235452468313,-47.33995907629348,12.861736334405144,-97.82227418883367
1686918331,-0.538385085,2.5770699402,9.6622176588,-0.012980886311707827,-0.047036623341247176,-0.00519235452468313,-47.33995907629348,12.861736334405144,-97.82227418883367
1686918331,-0.538385085,2.5770699402,9.6622176588,-0.01313360262125733,-0.047342055960346185,-0.004428772976935611,-47.33995907629348,12.861736334405144,-97.82227418883367
1686918331,-0.538385085,2.5734807063,9.665806892700001,-0.01313360262125733,-0.047342055960346185,-0.004428772976935611,-47.33995907629348,12.861736334405144,-97.82227418883367
1686918331,-0.538385085,2.5734807063,9.665806892700001,-0.01313360262125733,-0.047342055960346185,-0.004428772976935611,-47.33995907629348,12.861736334405144,-97.82227418883367
1686918331,-0.5240281494,2.5710878837,9.665806892700001,-0.012675453692608817,-0.047189339650796684,-0.003817907738737596,-47.33995907629348,12.861736334405144,-97.82227418883367
1686918331,-0.5240281494,2.5710878837,9.665806892700001,-0.012675453692608817,-0.047189339650796684,-0.003817907738737596,-47.33995907629348,12.861736334405144,-97.82227418883367
1686918331,-0.526420972,2.5651058272,9.6681997153,-0.01313360262125733,-0.047647488579445195,-0.004886921905584123,-47.33995907629348,12.861736334405144,-97.82227418883367
1686918331,-0.526420972,2.5651058272,9.6681997153,-0.01313360262125733,-0.047647488579445195,-0.004886921905584123,-47.33995907629348,12.861736334405144,-97.82227418883367
1686918331,-0.5300102059,2.5770699402,9.6586284249,-0.012064588454410803,-0.04657847441259867,-0.004581489286485115,-47.33995907629348,12.861736334405144,-97.82227418883367
1686918331,-0.5300102059,2.5770699402,9.6586284249,-0.012064588454410803,-0.04657847441259867,-0.004581489286485115,-47.33995907629348,12.861736334405144,-97.82227418883367
1686918331,-0.5503491979999999,2.5866412306,9.646664311899999,-0.012064588454410803,-0.046883907031697675,-0.004886921905584123,-47.33995907629348,12.861736334405144,-97.82227418883367
1686918331,-0.5503491979999999,2.5866412306,9.646664311899999,-0.012064588454410803,-0.046883907031697675,-0.004886921905584123,-47.33995907629348,12.861736334405144,-97.82227418883367
1686918331,-0.5551348432,2.5854448193,9.6622176588,-0.013439035240356337,-0.04810563750809371,-0.005345070834232635,-47.33995907629348,12.861736334405144,-97.82227418883367
1686918331,-0.5551348432,2.5854448193,9.6622176588,-0.013439035240356337,-0.04810563750809371,-0.005345070834232635,-47.33995907629348,12.861736334405144,-97.82227418883367
1686918331,-0.5467599640999999,2.5878376418999998,9.6562356023,-0.012217304763960306,-0.04612032548395016,-0.004123340357836604,-47.33995907629348,12.861736334405144,-97.82227418883367
1686918331,-0.5467599640999999,2.5878376418999998,9.6562356023,-0.012217304763960306,-0.04612032548395016,-0.004123340357836604,-47.33995907629348,12.861736334405144,-97.82227418883367
1686918332,-0.5395814963,2.572284295,9.6717889492,-0.013286318930806833,-0.048869219055841226,-0.004886921905584123,-47.33995907629348,12.861736334405144,-97.82227418883367
1686918332,-0.5395814963,2.572284295,9.6717889492,-0.013286318930806833,-0.048869219055841226,-0.004886921905584123,-47.33995907629348,12.861736334405144,-97.82227418883367
1686918332,-0.5324030285,2.5926232871,9.661021247499999,-0.012522737383059314,-0.047189339650796684,-0.0039706240482871,-47.33995907629348,12.861736334405144,-97.82227418883367
1686918332,-0.5324030285,2.5926232871,9.661021247499999,-0.012522737383059314,-0.047189339650796684,-0.0039706240482871,-47.33995907629348,12.861736334405144,-97.82227418883367
1686918332,-0.526420972,2.5746771176,9.6538427797,-0.012675453692608817,-0.046883907031697675,-0.005803219762881146,-47.33995907629348,12.861736334405144,-97.82227418883367
1686918332,-0.526420972,2.5746771176,9.6538427797,-0.012675453692608817,-0.046883907031697675,-0.005803219762881146,-47.33995907629348,12.861736334405144,-97.82227418883367
1686918332,-0.5347958510999999,2.5782663514999995,9.6646104814,-0.013591751549905842,-0.04642575810304917,-0.005039638215133627,-47.33995907629348,12.861736334405144,-97.82227418883367
1686918332,-0.5347958510999999,2.5782663514999995,9.6646104814,-0.013591751549905842,-0.04642575810304917,-0.005039638215133627,-47.33995907629348,12.861736334405144,-97.82227418883367
1686918332,-0.526420972,2.5866412306,9.6562356023,-0.012217304763960306,-0.04612032548395016,-0.0039706240482871,-47.33995907629348,12.861736334405144,-97.82227418883367
1686918332,-0.526420972,2.5866412306,9.6562356023,-0.012217304763960306,-0.04612032548395016,-0.0039706240482871,-47.33995907629348,12.861736334405144,-97.82227418883367
1686918332,-0.5407779076,2.5854448193,9.6586284249,-0.012675453692608817,-0.047342055960346185,-0.005650503453331642,-47.33995907629348,12.861736334405144,-97.82227418883367
1686918332,-0.5407779076,2.5854448193,9.6586284249,-0.012675453692608817,-0.047342055960346185,-0.005650503453331642,-47.33995907629348,12.861736334405144,-97.82227418883367
1686918332,-0.5443671415,2.5878376418999998,9.6526463684,-0.012980886311707827,-0.04642575810304917,-0.004886921905584123,-47.33995907629348,12.861736334405144,-97.82227418883367
1686918332,-0.5443671415,2.5878376418999998,9.6526463684,-0.012980886311707827,-0.04642575810304917,-0.004886921905584123,-47.33995907629348,12.861736334405144,-97.82227418883367
1686918332,-0.5515456093,2.5818555854,9.655039191,-0.013286318930806833,-0.04627304179349966,-0.005039638215133627,-47.33995907629348,12.861736334405144,-97.82227418883367
1686918332,-0.5515456093,2.5818555854,9.655039191,-0.013286318930806833,-0.04627304179349966,-0.005039638215133627,-47.33995907629348,12.861736334405144,-97.82227418883367
1686918332,-0.5467599640999999,2.5770699402,9.6574320136,-0.013744467859455345,-0.046883907031697675,-0.005955936072430649,-47.33995907629348,12.861736334405144,-97.82227418883367
1686918332,-0.5467599640999999,2.5770699402,9.6574320136,-0.013744467859455345,-0.046883907031697675,-0.005955936072430649,-47.33995907629348,12.861736334405144,-97.82227418883367
1686918332,-0.5312066172,2.5686950610999997,9.6586284249,-0.012675453692608817,-0.04627304179349966,-0.004276056667386108,-47.33995907629348,12.861736334405144,-97.82227418883367
1686918332,-0.5312066172,2.5686950610999997,9.6586284249,-0.012675453692608817,-0.04627304179349966,-0.004276056667386108,-47.33995907629348,12.861736334405144,-97.82227418883367
1686918332,-0.5347958510999999,2.572284295,9.6598248362,-0.012522737383059314,-0.047036623341247176,-0.004428772976935611,-47.33995907629348,12.861736334405144,-97.82227418883367
1686918332,-0.5347958510999999,2.572284295,9.6598248362,-0.012522737383059314,-0.047036623341247176,-0.004428772976935611,-47.33995907629348,12.861736334405144,-97.82227418883367
1686918332,-0.5419743189,2.5866412306,9.6490571345,-0.012217304763960306,-0.047036623341247176,-0.004276056667386108,-47.33995907629348,12.861736334405144,-97.82227418883367
1686918332,-0.5419743189,2.5866412306,9.6490571345,-0.012217304763960306,-0.047036623341247176,-0.004276056667386108,-47.33995907629348,12.861736334405144,-97.82227418883367
1686918332,-0.5419743189,2.596212521,9.646664311899999,-0.012064588454410803,-0.04627304179349966,-0.003665191429188092,-47.33995907629348,12.861736334405144,-97.82227418883367
1686918332,-0.5431707302,2.596212521,9.646664311899999,-0.012064588454410803,-0.04627304179349966,-0.003665191429188092,-47.33995907629348,12.861736334405144,-97.82227418883367
1686918332,-0.5431707302,2.596212521,9.646664311899999,-0.013286318930806833,-0.04902193536539073,-0.005345070834232635,-47.33995907629348,12.861736334405144,-97.82227418883367
1686918332,-0.5443671415,2.5878376418999998,9.6598248362,-0.013286318930806833,-0.04902193536539073,-0.005345070834232635,-47.33995907629348,12.861736334405144,-97.82227418883367
1686918332,-0.5443671415,2.5878376418999998,9.6598248362,-0.012675453692608817,-0.04581489286485115,-0.004581489286485115,-47.33995907629348,12.861736334405144,-97.82227418883367
1686918332,-0.5395814963,2.5842484079999997,9.6526463684,-0.012675453692608817,-0.04581489286485115,-0.004581489286485115,-47.33995907629348,12.861736334405144,-97.82227418883367
1686918332,-0.5395814963,2.5842484079999997,9.6526463684,-0.012980886311707827,-0.047189339650796684,-0.005345070834232635,-47.33995907629348,12.861736334405144,-97.82227418883367
1686918332,-0.5467599640999999,2.5770699402,9.6514499571,-0.012980886311707827,-0.047189339650796684,-0.005345070834232635,-47.33995907629348,12.861736334405144,-97.82227418883367
1686918332,-0.5467599640999999,2.5770699402,9.655039191,-0.01313360262125733,-0.047952921198544204,-0.004428772976935611,-47.33995907629348,12.861736334405144,-97.82227418883367
1686918332,-0.5347958510999999,2.5663022385,9.655039191,-0.01313360262125733,-0.047952921198544204,-0.004428772976935611,-47.33995907629348,12.861736334405144,-97.82227418883367
1686918332,-0.5347958510999999,2.5663022385,9.655039191,-0.012217304763960306,-0.04612032548395016,-0.003665191429188092,-47.33995907629348,12.861736334405144,-97.82227418883367
1686918332,-0.5192425042,2.5770699402,9.6586284249,-0.012217304763960306,-0.04612032548395016,-0.003665191429188092,-47.33995907629348,12.861736334405144,-97.82227418883367
1686918332,-0.5192425042,2.5770699402,9.6586284249,-0.012828170002158322,-0.048411070127192715,-0.005345070834232635,-47.33995907629348,12.861736334405144,-97.82227418883367
1686918332,-0.5324030285,2.5746771176,9.655039191,-0.012828170002158322,-0.048411070127192715,-0.005345070834232635,-47.33995907629348,12.861736334405144,-97.82227418883367
1686918332,-0.5324030285,2.5746771176,9.655039191,-0.012828170002158322,-0.048411070127192715,-0.003817907738737596,-47.33995907629348,12.861736334405144,-97.82227418883367
1686918332,-0.5312066172,2.5818555854,9.655039191,-0.012522737383059314,-0.04596760917440065,-0.003817907738737596,-47.33995907629348,12.861736334405144,-97.82227418883367
1686918332,-0.5312066172,2.5818555854,9.655039191,-0.012522737383059314,-0.04596760917440065,-0.003817907738737596,-47.33995907629348,12.861736334405144,-97.82227418883367
1686918332,-0.5503491979999999,2.5866412306,9.643075077999999,-0.012828170002158322,-0.04627304179349966,-0.004581489286485115,-47.33995907629348,12.861736334405144,-97.82227418883367
1686918332,-0.5503491979999999,2.5866412306,9.643075077999999,-0.012828170002158322,-0.04627304179349966,-0.004581489286485115,-47.33995907629348,12.861736334405144,-97.82227418883367
1686918332,-0.5515456093,2.5698914723999997,9.6586284249,-0.013439035240356337,-0.0478002048889947,-0.005345070834232635,-47.33995907629348,12.861736334405144,-97.82227418883367
1686918332,-0.5515456093,2.5698914723999997,9.6586284249,-0.013439035240356337,-0.0478002048889947,-0.005345070834232635,-47.33995907629348,12.861736334405144,-97.82227418883367
1686918332,-0.5395814963,2.5794627628,9.6574320136,-0.01313360262125733,-0.04612032548395016,-0.004734205596034618,-47.33995907629348,12.861736334405144,-97.82227418883367
1686918332,-0.5395814963,2.5794627628,9.6574320136,-0.01313360262125733,-0.04612032548395016,-0.004734205596034618,-47.33995907629348,12.861736334405144,-97.82227418883367
1686918332,-0.5276173833,2.5746771176,9.6526463684,-0.012828170002158322,-0.047952921198544204,-0.004734205596034618,-47.33995907629348,12.861736334405144,-97.82227418883367
1686918332,-0.5276173833,2.5746771176,9.6526463684,-0.012828170002158322,-0.047952921198544204,-0.004734205596034618,-47.33995907629348,12.861736334405144,-97.82227418883367
1686918332,-0.5216353268,2.5758735289,9.6574320136,-0.012370021073509811,-0.047647488579445195,-0.004123340357836604,-47.33995907629348,12.861736334405144,-97.82227418883367
1686918332,-0.5216353268,2.5758735289,9.6574320136,-0.012370021073509811,-0.047647488579445195,-0.004123340357836604,-47.33995907629348,12.861736334405144,-97.82227418883367
1686918332,-0.526420972,2.5890340532,9.6562356023,-0.012828170002158322,-0.04642575810304917,-0.0039706240482871,-47.33995907629348,12.861736334405144,-97.82227418883367
1686918332,-0.526420972,2.5890340532,9.6562356023,-0.012828170002158322,-0.04642575810304917,-0.0039706240482871,-47.33995907629348,12.861736334405144,-97.82227418883367
1686918332,-0.5312066172,2.5926232871,9.6370930215,-0.012522737383059314,-0.046883907031697675,-0.005345070834232635,-47.33995907629348,12.861736334405144,-97.82227418883367
1686918332,-0.5312066172,2.5926232871,9.6370930215,-0.012522737383059314,-0.046883907031697675,-0.005345070834232635,-47.33995907629348,12.861736334405144,-97.82227418883367
1686918332,-0.5479563754,2.5866412306,9.6442714893,-0.013286318930806833,-0.04642575810304917,-0.005497787143782138,-47.33995907629348,12.861736334405144,-97.82227418883367
1686918332,-0.5479563754,2.5866412306,9.6442714893,-0.013286318930806833,-0.04642575810304917,-0.005497787143782138,-47.33995907629348,12.861736334405144,-97.82227418883367
1686918332,-0.5563312545,2.5830519966999996,9.6478607232,-0.013439035240356337,-0.047494772269895694,-0.005803219762881146,-47.33995907629348,12.861736334405144,-97.82227418883367
1686918332,-0.5563312545,2.5830519966999996,9.6478607232,-0.013439035240356337,-0.047494772269895694,-0.005803219762881146,-47.33995907629348,12.861736334405144,-97.82227418883367
1686918332,-0.5455635528,2.5663022385,9.6526463684,-0.013286318930806833,-0.046883907031697675,-0.005803219762881146,-47.33995907629348,12.861736334405144,-97.82227418883367
1686918332,-0.5455635528,2.5663022385,9.6526463684,-0.013286318930806833,-0.046883907031697675,-0.005803219762881146,-47.33995907629348,12.861736334405144,-97.82227418883367
1686918332,-0.5443671415,2.5686950610999997,9.6562356023,-0.013286318930806833,-0.048411070127192715,-0.004428772976935611,-47.33995907629348,12.861736334405144,-97.82227418883367
1686918332,-0.5443671415,2.5686950610999997,9.6562356023,-0.013286318930806833,-0.048411070127192715,-0.004428772976935611,-47.33995907629348,12.861736334405144,-97.82227418883367
1686918332,-0.5288137946,2.572284295,9.655039191,-0.012370021073509811,-0.047494772269895694,-0.004123340357836604,-47.33995907629348,12.861736334405144,-97.82227418883367
1686918332,-0.5288137946,2.572284295,9.655039191,-0.012370021073509811,-0.047494772269895694,-0.004123340357836604,-47.33995907629348,12.861736334405144,-97.82227418883367
1686918332,-0.538385085,2.5866412306,9.6358966102,-0.012064588454410803,-0.046883907031697675,-0.004581489286485115,-47.33995907629348,12.861736334405144,-97.82227418883367
1686918332,-0.538385085,2.5866412306,9.6358966102,-0.012064588454410803,-0.046883907031697675,-0.004581489286485115,-47.33995907629348,12.861736334405144,-97.82227418883367
1686918332,-0.538385085,2.5830519966999996,9.6382894328,-0.012675453692608817,-0.047494772269895694,-0.005345070834232635,-47.33995907629348,12.861736334405144,-97.82227418883367
1686918332,-0.538385085,2.5830519966999996,9.6382894328,-0.012675453692608817,-0.047494772269895694,-0.005345070834232635,-47.33995907629348,12.861736334405144,-97.82227418883367
1686918332,-0.5407779076,2.5830519966999996,9.6526463684,-0.012828170002158322,-0.047952921198544204,-0.004886921905584123,-47.33995907629348,12.861736334405144,-97.82227418883367
1686918332,-0.5407779076,2.5830519966999996,9.6526463684,-0.012828170002158322,-0.047952921198544204,-0.004886921905584123,-47.33995907629348,12.861736334405144,-97.82227418883367
1686918332,-0.5312066172,2.5950161097,9.6598248362,-0.01313360262125733,-0.047494772269895694,-0.004123340357836604,-47.33995907629348,12.861736334405144,-97.82227418883367
1686918332,-0.5312066172,2.5950161097,9.6598248362,-0.01313360262125733,-0.047494772269895694,-0.004123340357836604,-47.33995907629348,12.861736334405144,-97.82227418883367
1686918332,-0.5288137946,2.5758735289,9.6382894328,-0.012980886311707827,-0.045356743936202634,-0.004581489286485115,-47.33995907629348,12.861736334405144,-97.82227418883367
1686918332,-0.5288137946,2.5758735289,9.6382894328,-0.012980886311707827,-0.045356743936202634,-0.004581489286485115,-47.33995907629348,12.861736334405144,-97.82227418883367
1686918332,-0.5276173833,2.5842484079999997,9.6490571345,-0.013286318930806833,-0.04627304179349966,-0.004581489286485115,-47.33995907629348,12.861736334405144,-97.82227418883367
1686918332,-0.5276173833,2.5842484079999997,9.6490571345,-0.013286318930806833,-0.04627304179349966,-0.004581489286485115,-47.33995907629348,12.861736334405144,-97.82227418883367
1686918332,-0.5431707302,2.5794627628,9.6478607232,-0.01313360262125733,-0.04520402762665313,-0.00519235452468313,-47.33995907629348,12.861736334405144,-97.82227418883367
1686918332,-0.5431707302,2.5794627628,9.6478607232,-0.01313360262125733,-0.04520402762665313,-0.00519235452468313,-47.33995907629348,12.861736334405144,-97.82227418883367
1686918332,-0.5431707302,2.5794627628,9.6478607232,-0.012675453692608817,-0.04673119072214818,-0.005345070834232635,-47.33995907629348,12.861736334405144,-97.82227418883367
1686918332,-0.5539384319,2.5615165933,9.6478607232,-0.012675453692608817,-0.04673119072214818,-0.005345070834232635,-47.33995907629348,12.861736334405144,-97.82227418883367
1686918332,-0.5539384319,2.5615165933,9.6478607232,-0.012980886311707827,-0.047189339650796684,-0.0035124751196385882,-47.33995907629348,12.861736334405144,-97.82227418883367
1686918332,-0.5479563754,2.5854448193,9.6478607232,-0.012980886311707827,-0.047189339650796684,-0.0035124751196385882,-47.33995907629348,12.861736334405144,-97.82227418883367
1686918332,-0.5479563754,2.5854448193,9.6478607232,-0.012980886311707827,-0.04612032548395016,-0.0035124751196385882,-47.33995907629348,12.861736334405144,-97.82227418883367
1686918332,-0.5312066172,2.5878376418999998,9.633503787599999,-0.011453723216212788,-0.04612032548395016,-0.0035124751196385882,-47.33995907629348,12.861736334405144,-97.82227418883367
1686918332,-0.5312066172,2.5878376418999998,9.633503787599999,-0.011453723216212788,-0.04612032548395016,-0.0035124751196385882,-47.33995907629348,12.861736334405144,-97.82227418883367
1686918332,-0.5288137946,2.5890340532,9.6514499571,-0.013591751549905842,-0.04673119072214818,-0.005345070834232635,-47.33995907629348,12.861736334405144,-97.82227418883367
1686918332,-0.5288137946,2.5890340532,9.6514499571,-0.013591751549905842,-0.04673119072214818,-0.005345070834232635,-47.33995907629348,12.861736334405144,-97.82227418883367
1686918332,-0.526420972,2.5878376418999998,9.631110965,-0.012522737383059314,-0.044898595007554123,-0.004581489286485115,-47.33995907629348,12.861736334405144,-97.82227418883367
1686918332,-0.526420972,2.5878376418999998,9.631110965,-0.012522737383059314,-0.044898595007554123,-0.004581489286485115,-47.33995907629348,12.861736334405144,-97.82227418883367
1686918332,-0.5312066172,2.5758735289,9.6442714893,-0.014049900478554353,-0.04657847441259867,-0.005345070834232635,-47.33995907629348,12.861736334405144,-97.82227418883367
1686918332,-0.5312066172,2.5758735289,9.6442714893,-0.014049900478554353,-0.04657847441259867,-0.005345070834232635,-47.33995907629348,12.861736334405144,-97.82227418883367
1686918332,-0.5407779076,2.5758735289,9.631110965,-0.012828170002158322,-0.045662176555301644,-0.004428772976935611,-47.33995907629348,12.861736334405144,-97.82227418883367
1686918332,-0.5407779076,2.5758735289,9.631110965,-0.012828170002158322,-0.045662176555301644,-0.004428772976935611,-47.33995907629348,12.861736334405144,-97.82227418883367
1686918332,-0.5455635528,2.5806591741,9.6454679006,-0.012980886311707827,-0.047647488579445195,-0.004734205596034618,-47.33995907629348,12.861736334405144,-97.82227418883367
1686918332,-0.5455635528,2.5806591741,9.6454679006,-0.012980886311707827,-0.047647488579445195,-0.004734205596034618,-47.33995907629348,12.861736334405144,-97.82227418883367
1686918332,-0.5443671415,2.5890340532,9.6406822554,-0.012522737383059314,-0.047036623341247176,-0.004428772976935611,-47.33995907629348,12.861736334405144,-97.82227418883367
1686918332,-0.5443671415,2.5890340532,9.6406822554,-0.012522737383059314,-0.047036623341247176,-0.004428772976935611,-47.33995907629348,12.861736334405144,-97.82227418883367
1686918332,-0.5491527867,2.5854448193,9.6179504407,-0.011759155835311794,-0.04642575810304917,-0.00519235452468313,-47.33995907629348,12.861736334405144,-97.82227418883367
1686918332,-0.5491527867,2.5854448193,9.6179504407,-0.011759155835311794,-0.04642575810304917,-0.00519235452468313,-47.33995907629348,12.861736334405144,-97.82227418883367
1686918332,-0.5359922624,2.5806591741,9.6442714893,-0.01435533309765336,-0.04856378643674222,-0.005497787143782138,-47.33995907629348,12.861736334405144,-97.82227418883367
1686918332,-0.5359922624,2.5806591741,9.6442714893,-0.01435533309765336,-0.04856378643674222,-0.005497787143782138,-47.33995907629348,12.861736334405144,-97.82227418883367
1686918333,-0.5324030285,2.5674986498,9.6406822554,-0.013286318930806833,-0.045662176555301644,-0.00519235452468313,-47.33995907629348,12.861736334405144,-97.82227418883367
1686918333,-0.5324030285,2.5674986498,9.6406822554,-0.013286318930806833,-0.045662176555301644,-0.00519235452468313,-47.33995907629348,12.861736334405144,-97.82227418883367
1686918333,-0.5419743189,2.5639094158999995,9.6418786667,-0.012828170002158322,-0.0478002048889947,-0.005345070834232635,-47.33995907629348,12.861736334405144,-97.82227418883367
1686918333,-0.5419743189,2.5639094158999995,9.6418786667,-0.012828170002158322,-0.0478002048889947,-0.005345070834232635,-47.33995907629348,12.861736334405144,-97.82227418883367
1686918333,-0.5551348432,2.5758735289,9.643075077999999,-0.012675453692608817,-0.047189339650796684,-0.004276056667386108,-47.33995907629348,12.861736334405144,-97.82227418883367
1686918333,-0.5551348432,2.5758735289,9.643075077999999,-0.012675453692608817,-0.047189339650796684,-0.004276056667386108,-47.33995907629348,12.861736334405144,-97.82227418883367
1686918333,-0.5347958510999999,2.5782663514999995,9.6358966102,-0.011759155835311794,-0.047342055960346185,-0.004734205596034618,-47.33995907629348,12.861736334405144,-97.82227418883367
1686918333,-0.5347958510999999,2.5782663514999995,9.6358966102,-0.011759155835311794,-0.047342055960346185,-0.004734205596034618,-47.33995907629348,12.861736334405144,-97.82227418883367
1686918333,-0.5347958510999999,2.5782663514999995,9.6394858441,-0.012217304763960306,-0.047494772269895694,-0.004428772976935611,-47.33995907629348,12.861736334405144,-97.82227418883367
1686918333,-0.5347958510999999,2.5938196984,9.6394858441,-0.012217304763960306,-0.047494772269895694,-0.004428772976935611,-47.33995907629348,12.861736334405144,-97.82227418883367
1686918333,-0.5347958510999999,2.5938196984,9.6394858441,-0.012522737383059314,-0.0478002048889947,-0.005039638215133627,-47.33995907629348,12.861736334405144,-97.82227418883367
1686918333,-0.526420972,2.5878376418999998,9.6406822554,-0.012522737383059314,-0.0478002048889947,-0.005039638215133627,-47.33995907629348,12.861736334405144,-97.82227418883367
1686918333,-0.526420972,2.5878376418999998,9.6406822554,-0.012522737383059314,-0.04657847441259867,-0.00519235452468313,-47.33995907629348,12.861736334405144,-97.82227418883367
1686918333,-0.5335994398,2.5806591741,9.6370930215,-0.012217304763960306,-0.04657847441259867,-0.00519235452468313,-47.33995907629348,12.861736334405144,-97.82227418883367
1686918333,-0.5335994398,2.5806591741,9.6370930215,-0.012217304763960306,-0.04657847441259867,-0.00519235452468313,-47.33995907629348,12.861736334405144,-97.82227418883367
1686918333,-0.5276173833,2.5830519966999996,9.6526463684,-0.012980886311707827,-0.047952921198544204,-0.004886921905584123,-47.33995907629348,12.861736334405144,-97.82227418883367
1686918333,-0.5276173833,2.5830519966999996,9.6526463684,-0.012980886311707827,-0.047952921198544204,-0.004886921905584123,-47.33995907629348,12.861736334405144,-97.82227418883367
1686918333,-0.538385085,2.572284295,9.6406822554,-0.01313360262125733,-0.04657847441259867,-0.005345070834232635,-47.33995907629348,12.861736334405144,-97.82227418883367
1686918333,-0.5443671415,2.5651058272,9.6454679006,-0.01313360262125733,-0.046883907031697675,-0.005345070834232635,-47.33995907629348,12.861736334405144,-97.82227418883367
1686918333,-0.5443671415,2.5651058272,9.6454679006,-0.01313360262125733,-0.046883907031697675,-0.005345070834232635,-47.33995907629348,12.861736334405144,-97.82227418883367
1686918333,-0.5371886737,2.5758735289,9.6370930215,-0.012217304763960306,-0.047036623341247176,-0.004886921905584123,-47.33995907629348,12.861736334405144,-97.82227418883367
1686918333,-0.5371886737,2.5758735289,9.6370930215,-0.012217304763960306,-0.047036623341247176,-0.004886921905584123,-47.33995907629348,12.861736334405144,-97.82227418883367
1686918333,-0.5503491979999999,2.5830519966999996,9.6454679006,-0.012980886311707827,-0.04856378643674222,-0.004734205596034618,-47.33995907629348,12.861736334405144,-97.82227418883367
1686918333,-0.5503491979999999,2.5830519966999996,9.6454679006,-0.012980886311707827,-0.04856378643674222,-0.004734205596034618,-47.33995907629348,12.861736334405144,-97.82227418883367
1686918333,-0.5467599640999999,2.5782663514999995,9.6287181424,-0.012370021073509811,-0.047036623341247176,-0.005039638215133627,-47.33995907629348,12.861736334405144,-97.82227418883367
1686918333,-0.5467599640999999,2.5782663514999995,9.6287181424,-0.012370021073509811,-0.047036623341247176,-0.005039638215133627,-47.33995907629348,12.861736334405144,-97.82227418883367
1686918333,-0.5300102059,2.5615165933,9.6370930215,-0.01313360262125733,-0.047342055960346185,-0.005497787143782138,-47.33995907629348,12.861736334405144,-97.82227418883367
1686918333,-0.5300102059,2.5615165933,9.6370930215,-0.01313360262125733,-0.047342055960346185,-0.005497787143782138,-47.33995907629348,12.861736334405144,-97.82227418883367
1686918333,-0.5300102059,2.5890340532,9.6478607232,-0.01313360262125733,-0.04902193536539073,-0.0032070425005395805,-47.33995907629348,12.861736334405144,-97.82227418883367
1686918333,-0.5300102059,2.5890340532,9.6478607232,-0.01313360262125733,-0.04902193536539073,-0.0032070425005395805,-47.33995907629348,12.861736334405144,-97.82227418883367
1686918333,-0.5300102059,2.5890340532,9.6478607232,-0.010995574287564275,-0.04520402762665313,-0.005345070834232635,-47.33995907629348,12.861736334405144,-97.82227418883367
1686918333,-0.5312066172,2.5698914723999997,9.6155576181,-0.010995574287564275,-0.04520402762665313,-0.005345070834232635,-47.33995907629348,12.861736334405144,-97.82227418883367
1686918333,-0.5312066172,2.5698914723999997,9.6155576181,-0.013439035240356337,-0.048258353817643214,-0.00519235452468313,-47.33995907629348,12.861736334405144,-97.82227418883367
1686918333,-0.5395814963,2.5890340532,9.6478607232,-0.013439035240356337,-0.048258353817643214,-0.00519235452468313,-47.33995907629348,12.861736334405144,-97.82227418883367
1686918333,-0.5395814963,2.5890340532,9.6478607232,-0.013439035240356337,-0.048258353817643214,-0.00519235452468313,-47.33995907629348,12.861736334405144,-97.82227418883367
1686918333,-0.538385085,2.6021945774999997,9.6287181424,-0.012370021073509811,-0.04596760917440065,-0.004123340357836604,-47.33995907629348,12.861736334405144,-97.82227418883367
1686918333,-0.538385085,2.6021945774999997,9.6287181424,-0.012370021073509811,-0.04596760917440065,-0.004123340357836604,-47.33995907629348,12.861736334405144,-97.82227418883367
1686918333,-0.5455635528,2.572284295,9.6358966102,-0.012828170002158322,-0.047647488579445195,-0.0070249502392771765,-47.33995907629348,12.861736334405144,-97.82227418883367
1686918333,-0.5455635528,2.572284295,9.6358966102,-0.012828170002158322,-0.047647488579445195,-0.0070249502392771765,-47.33995907629348,12.861736334405144,-97.82227418883367
1686918333,-0.5371886737,2.5842484079999997,9.6478607232,-0.01313360262125733,-0.047189339650796684,-0.003817907738737596,-47.33995907629348,12.861736334405144,-97.82227418883367
1686918333,-0.5371886737,2.5842484079999997,9.6478607232,-0.01313360262125733,-0.047189339650796684,-0.003817907738737596,-47.33995907629348,12.861736334405144,-97.82227418883367
1686918333,-0.5288137946,2.5818555854,9.6323073763,-0.012828170002158322,-0.04581489286485115,-0.004886921905584123,-47.33995907629348,12.861736334405144,-97.82227418883367
1686918333,-0.5288137946,2.5818555854,9.6323073763,-0.012828170002158322,-0.04581489286485115,-0.004886921905584123,-47.33995907629348,12.861736334405144,-97.82227418883367
1686918333,-0.5479563754,2.5674986498,9.6454679006,-0.013591751549905842,-0.047342055960346185,-0.006108652381980153,-47.33995907629348,12.861736334405144,-97.82227418883367
1686918333,-0.5479563754,2.5674986498,9.6454679006,-0.013591751549905842,-0.047342055960346185,-0.006108652381980153,-47.33995907629348,12.861736334405144,-97.82227418883367
1686918333,-0.5431707302,2.572284295,9.6406822554,-0.012217304763960306,-0.047036623341247176,-0.004734205596034618,-47.33995907629348,12.861736334405144,-97.82227418883367
1686918333,-0.5431707302,2.572284295,9.6406822554,-0.012217304763960306,-0.047036623341247176,-0.004734205596034618,-47.33995907629348,12.861736334405144,-97.82227418883367
1686918333,-0.5455635528,2.5878376418999998,9.6502535458,-0.01313360262125733,-0.047647488579445195,-0.004428772976935611,-47.33995907629348,12.861736334405144,-97.82227418883367
1686918333,-0.5455635528,2.5878376418999998,9.6502535458,-0.01313360262125733,-0.047647488579445195,-0.004428772976935611,-47.33995907629348,12.861736334405144,-97.82227418883367
1686918333,-0.5359922624,2.5782663514999995,9.6418786667,-0.012522737383059314,-0.04581489286485115,-0.005039638215133627,-47.33995907629348,12.861736334405144,-97.82227418883367
1686918333,-0.5359922624,2.5782663514999995,9.6418786667,-0.012522737383059314,-0.04581489286485115,-0.005039638215133627,-47.33995907629348,12.861736334405144,-97.82227418883367
1686918333,-0.5300102059,2.5782663514999995,9.6323073763,-0.012370021073509811,-0.04612032548395016,-0.004428772976935611,-47.33995907629348,12.861736334405144,-97.82227418883367
1686918333,-0.5300102059,2.5782663514999995,9.6323073763,-0.012370021073509811,-0.04612032548395016,-0.004428772976935611,-47.33995907629348,12.861736334405144,-97.82227418883367
1686918333,-0.538385085,2.5866412306,9.6538427797,-0.013439035240356337,-0.047189339650796684,-0.0039706240482871,-47.33995907629348,12.861736334405144,-97.82227418883367
1686918333,-0.538385085,2.5866412306,9.6538427797,-0.013439035240356337,-0.047189339650796684,-0.0039706240482871,-47.33995907629348,12.861736334405144,-97.82227418883367
1686918333,-0.5419743189,2.5818555854,9.633503787599999,-0.011759155835311794,-0.04581489286485115,-0.004734205596034618,-47.33995907629348,12.861736334405144,-97.82227418883367
1686918333,-0.5419743189,2.5818555854,9.633503787599999,-0.011759155835311794,-0.04581489286485115,-0.004734205596034618,-47.33995907629348,12.861736334405144,-97.82227418883367
1686918333,-0.538385085,2.5806591741,9.6454679006,-0.01313360262125733,-0.04871650274629172,-0.004886921905584123,-47.33995907629348,12.861736334405144,-97.82227418883367
1686918333,-0.538385085,2.5806591741,9.6454679006,-0.01313360262125733,-0.04871650274629172,-0.004886921905584123,-47.33995907629348,12.861736334405144,-97.82227418883367
1686918333,-0.5335994398,2.5830519966999996,9.6418786667,-0.012522737383059314,-0.04581489286485115,-0.004276056667386108,-47.33995907629348,12.861736334405144,-97.82227418883367
1686918333,-0.5335994398,2.5830519966999996,9.6418786667,-0.012522737383059314,-0.04581489286485115,-0.004276056667386108,-47.33995907629348,12.861736334405144,-97.82227418883367
1686918333,-0.5335994398,2.5830519966999996,9.6418786667,-0.01313360262125733,-0.047036623341247176,-0.005650503453331642,-47.33995907629348,12.861736334405144,-97.82227418883367
1686918333,-0.5419743189,2.5627130046,9.6514499571,-0.01313360262125733,-0.047036623341247176,-0.005650503453331642,-47.33995907629348,12.861736334405144,-97.82227418883367
1686918333,-0.5419743189,2.5627130046,9.6514499571,-0.012980886311707827,-0.047189339650796684,-0.004581489286485115,-47.33995907629348,12.861736334405144,-97.82227418883367
1686918333,-0.538385085,2.5806591741,9.6526463684,-0.012980886311707827,-0.047189339650796684,-0.004581489286485115,-47.33995907629348,12.861736334405144,-97.82227418883367
1686918333,-0.538385085,2.5806591741,9.6526463684,-0.012980886311707827,-0.046883907031697675,-0.004734205596034618,-47.33995907629348,12.861736334405144,-97.82227418883367
1686918333,-0.5335994398,2.5806591741,9.6502535458,-0.012522737383059314,-0.046883907031697675,-0.004734205596034618,-47.33995907629348,12.861736334405144,-97.82227418883367
1686918333,-0.5335994398,2.5806591741,9.6502535458,-0.012522737383059314,-0.046883907031697675,-0.004734205596034618,-47.33995907629348,12.861736334405144,-97.82227418883367
1686918333,-0.5467599640999999,2.5890340532,9.6442714893,-0.012217304763960306,-0.047036623341247176,-0.004734205596034618,-47.33995907629348,12.861736334405144,-97.82227418883367
1686918333,-0.5467599640999999,2.5890340532,9.6442714893,-0.012980886311707827,-0.047342055960346185,-0.004581489286485115,-47.33995907629348,12.861736334405144,-97.82227418883367
1686918333,-0.5395814963,2.5878376418999998,9.6574320136,-0.012980886311707827,-0.047342055960346185,-0.004581489286485115,-47.33995907629348,12.861736334405144,-97.82227418883367
1686918333,-0.5395814963,2.5878376418999998,9.6574320136,-0.012980886311707827,-0.047342055960346185,-0.0039706240482871,-47.33995907629348,12.861736334405144,-97.82227418883367
1686918333,-0.5276173833,2.5878376418999998,9.6442714893,-0.012675453692608817,-0.045356743936202634,-0.0039706240482871,-47.33995907629348,12.861736334405144,-97.82227418883367
1686918333,-0.5276173833,2.5878376418999998,9.6442714893,-0.012675453692608817,-0.045356743936202634,-0.0039706240482871,-47.33995907629348,12.861736334405144,-97.82227418883367
1686918333,-0.5359922624,2.5710878837,9.6562356023,-0.013439035240356337,-0.047342055960346185,-0.005803219762881146,-47.33995907629348,12.861736334405144,-97.82227418883367
1686918333,-0.5359922624,2.5710878837,9.6562356023,-0.013439035240356337,-0.047342055960346185,-0.005803219762881146,-47.33995907629348,12.861736334405144,-97.82227418883367
1686918333,-0.5312066172,2.5734807063,9.6514499571,-0.012980886311707827,-0.04642575810304917,-0.003665191429188092,-47.33995907629348,12.861736334405144,-97.82227418883367
1686918333,-0.5312066172,2.5734807063,9.6514499571,-0.012980886311707827,-0.04642575810304917,-0.003665191429188092,-47.33995907629348,12.861736334405144,-97.82227418883367
1686918333,-0.5324030285,2.5830519966999996,9.6598248362,-0.01313360262125733,-0.046883907031697675,-0.004734205596034618,-47.33995907629348,12.861736334405144,-97.82227418883367
1686918333,-0.5324030285,2.5830519966999996,9.6598248362,-0.01313360262125733,-0.046883907031697675,-0.004734205596034618,-47.33995907629348,12.861736334405144,-97.82227418883367
1686918333,-0.5371886737,2.5782663514999995,9.6478607232,-0.012370021073509811,-0.045356743936202634,-0.00519235452468313,-47.33995907629348,12.861736334405144,-97.82227418883367
1686918333,-0.5371886737,2.5782663514999995,9.6478607232,-0.012370021073509811,-0.045356743936202634,-0.00519235452468313,-47.33995907629348,12.861736334405144,-97.82227418883367
1686918333,-0.5503491979999999,2.5878376418999998,9.6574320136,-0.013439035240356337,-0.04673119072214818,-0.005039638215133627,-47.33995907629348,12.861736334405144,-97.82227418883367
1686918333,-0.5503491979999999,2.5878376418999998,9.6574320136,-0.013439035240356337,-0.04673119072214818,-0.005039638215133627,-47.33995907629348,12.861736334405144,-97.82227418883367
1686918333,-0.5443671415,2.5878376418999998,9.6418786667,-0.012828170002158322,-0.047036623341247176,-0.004276056667386108,-47.33995907629348,12.861736334405144,-97.82227418883367
1686918333,-0.5443671415,2.5878376418999998,9.6418786667,-0.012828170002158322,-0.047036623341247176,-0.004276056667386108,-47.33995907629348,12.861736334405144,-97.82227418883367
1686918333,-0.5371886737,2.5758735289,9.6454679006,-0.012980886311707827,-0.04871650274629172,-0.004886921905584123,-47.33995907629348,12.861736334405144,-97.82227418883367
1686918333,-0.5371886737,2.5758735289,9.6454679006,-0.012980886311707827,-0.04871650274629172,-0.004886921905584123,-47.33995907629348,12.861736334405144,-97.82227418883367
1686918333,-0.5419743189,2.5770699402,9.6478607232,-0.012980886311707827,-0.047647488579445195,-0.004428772976935611,-47.33995907629348,12.861736334405144,-97.82227418883367
1686918333,-0.5419743189,2.5770699402,9.6478607232,-0.012980886311707827,-0.047647488579445195,-0.004428772976935611,-47.33995907629348,12.861736334405144,-97.82227418883367
1686918333,-0.5312066172,2.5770699402,9.646664311899999,-0.01313360262125733,-0.047647488579445195,-0.004734205596034618,-47.33995907629348,12.861736334405144,-97.82227418883367
1686918333,-0.5312066172,2.5770699402,9.646664311899999,-0.01313360262125733,-0.047647488579445195,-0.004734205596034618,-47.33995907629348,12.861736334405144,-97.82227418883367
1686918333,-0.538385085,2.5806591741,9.6454679006,-0.012828170002158322,-0.04673119072214818,-0.004734205596034618,-47.33995907629348,12.861736334405144,-97.82227418883367
1686918333,-0.538385085,2.5806591741,9.6454679006,-0.012828170002158322,-0.04673119072214818,-0.004734205596034618,-47.33995907629348,12.861736334405144,-97.82227418883367
1686918333,-0.5371886737,2.5818555854,9.6418786667,-0.012675453692608817,-0.04657847441259867,-0.004734205596034618,-47.33995907629348,12.861736334405144,-97.82227418883367
1686918333,-0.5371886737,2.5818555854,9.6418786667,-0.012675453692608817,-0.04657847441259867,-0.004734205596034618,-47.33995907629348,12.861736334405144,-97.82227418883367
1686918333,-0.5395814963,2.5890340532,9.6502535458,-0.012980886311707827,-0.047647488579445195,-0.00519235452468313,-47.33995907629348,12.861736334405144,-97.82227418883367
1686918333,-0.5395814963,2.5890340532,9.6502535458,-0.012980886311707827,-0.047647488579445195,-0.00519235452468313,-47.33995907629348,12.861736334405144,-97.82227418883367
1686918333,-0.5347958510999999,2.5806591741,9.634700198900001,-0.012675453692608817,-0.04581489286485115,-0.00519235452468313,-47.33995907629348,12.861736334405144,-97.82227418883367
1686918333,-0.5347958510999999,2.5806591741,9.634700198900001,-0.012675453692608817,-0.04581489286485115,-0.00519235452468313,-47.33995907629348,12.861736334405144,-97.82227418883367
1686918333,-0.5347958510999999,2.5806591741,9.634700198900001,-0.01389718416900485,-0.047342055960346185,-0.005497787143782138,-47.33995907629348,12.861736334405144,-97.82227418883367
1686918333,-0.538385085,2.5686950610999997,9.6562356023,-0.01389718416900485,-0.047342055960346185,-0.005497787143782138,-47.33995907629348,12.861736334405144,-97.82227418883367
1686918334,-0.538385085,2.5686950610999997,9.6562356023,-0.012522737383059314,-0.047952921198544204,-0.004734205596034618,-47.33995907629348,12.861736334405144,-97.82227418883367
1686918334,-0.5335994398,2.5818555854,9.6538427797,-0.012522737383059314,-0.047952921198544204,-0.004734205596034618,-47.33995907629348,12.861736334405144,-97.82227418883367
1686918334,-0.5335994398,2.5818555854,9.6538427797,-0.012522737383059314,-0.047952921198544204,-0.005345070834232635,-47.33995907629348,12.861736334405144,-97.82227418883367
1686918334,-0.5359922624,2.5674986498,9.646664311899999,-0.012980886311707827,-0.047494772269895694,-0.005345070834232635,-47.33995907629348,12.861736334405144,-97.82227418883367
1686918334,-0.5359922624,2.5674986498,9.646664311899999,-0.012980886311707827,-0.047494772269895694,-0.005345070834232635,-47.33995907629348,12.861736334405144,-97.82227418883367
1686918334,-0.5467599640999999,2.5746771176,9.643075077999999,-0.012828170002158322,-0.04627304179349966,-0.005039638215133627,-47.33995907629348,12.861736334405144,-97.82227418883367
1686918334,-0.5467599640999999,2.5746771176,9.643075077999999,-0.012828170002158322,-0.04627304179349966,-0.005039638215133627,-47.33995907629348,12.861736334405144,-97.82227418883367
1686918334,-0.5479563754,2.5890340532,9.6442714893,-0.012828170002158322,-0.046883907031697675,-0.004886921905584123,-47.33995907629348,12.861736334405144,-97.82227418883367
1686918334,-0.5479563754,2.5890340532,9.6442714893,-0.012828170002158322,-0.046883907031697675,-0.004886921905584123,-47.33995907629348,12.861736334405144,-97.82227418883367
1686918334,-0.5431707302,2.5830519966999996,9.6394858441,-0.012522737383059314,-0.045662176555301644,-0.005039638215133627,-47.33995907629348,12.861736334405144,-97.82227418883367
1686918334,-0.5431707302,2.5830519966999996,9.6394858441,-0.012522737383059314,-0.045662176555301644,-0.005039638215133627,-47.33995907629348,12.861736334405144,-97.82227418883367
1686918334,-0.5300102059,2.5830519966999996,9.6538427797,-0.012828170002158322,-0.04673119072214818,-0.004276056667386108,-47.33995907629348,12.861736334405144,-97.82227418883367
1686918334,-0.5300102059,2.5830519966999996,9.6538427797,-0.012828170002158322,-0.04673119072214818,-0.004276056667386108,-47.33995907629348,12.861736334405144,-97.82227418883367
1686918334,-0.5204389155,2.5794627628,9.6514499571,-0.012217304763960306,-0.046883907031697675,-0.004123340357836604,-47.33995907629348,12.861736334405144,-97.82227418883367
1686918334,-0.5204389155,2.5794627628,9.6514499571,-0.012217304763960306,-0.046883907031697675,-0.004123340357836604,-47.33995907629348,12.861736334405144,-97.82227418883367
1686918334,-0.526420972,2.5914268758000003,9.6394858441,-0.012828170002158322,-0.04612032548395016,-0.004734205596034618,-47.33995907629348,12.861736334405144,-97.82227418883367
1686918334,-0.526420972,2.5914268758000003,9.6394858441,-0.012828170002158322,-0.04612032548395016,-0.004734205596034618,-47.33995907629348,12.861736334405144,-97.82227418883367
1686918334,-0.5419743189,2.5854448193,9.6418786667,-0.012522737383059314,-0.046883907031697675,-0.004886921905584123,-47.33995907629348,12.861736334405144,-97.82227418883367
1686918334,-0.5419743189,2.5854448193,9.6418786667,-0.012522737383059314,-0.046883907031697675,-0.004886921905584123,-47.33995907629348,12.861736334405144,-97.82227418883367
1686918334,-0.5395814963,2.5710878837,9.6382894328,-0.013439035240356337,-0.04657847441259867,-0.005345070834232635,-47.33995907629348,12.861736334405144,-97.82227418883367
1686918334,-0.5395814963,2.5710878837,9.6382894328,-0.013439035240356337,-0.04657847441259867,-0.005345070834232635,-47.33995907629348,12.861736334405144,-97.82227418883367
1686918334,-0.5503491979999999,2.5794627628,9.6358966102,-0.013286318930806833,-0.046883907031697675,-0.004428772976935611,-47.33995907629348,12.861736334405144,-97.82227418883367
1686918334,-0.5503491979999999,2.5794627628,9.6358966102,-0.013286318930806833,-0.046883907031697675,-0.004428772976935611,-47.33995907629348,12.861736334405144,-97.82227418883367
1686918334,-0.5467599640999999,2.5758735289,9.6406822554,-0.013591751549905842,-0.04657847441259867,-0.004734205596034618,-47.33995907629348,12.861736334405144,-97.82227418883367
1686918334,-0.5467599640999999,2.5758735289,9.6406822554,-0.013591751549905842,-0.04657847441259867,-0.004734205596034618,-47.33995907629348,12.861736334405144,-97.82227418883367
1686918334,-0.5371886737,2.572284295,9.6538427797,-0.01313360262125733,-0.04612032548395016,-0.00519235452468313,-47.33995907629348,12.861736334405144,-97.82227418883367
1686918334,-0.5371886737,2.572284295,9.6538427797,-0.01313360262125733,-0.04612032548395016,-0.00519235452468313,-47.33995907629348,12.861736334405144,-97.82227418883367
1686918334,-0.5371886737,2.572284295,9.6406822554,-0.01313360262125733,-0.04810563750809371,-0.004276056667386108,-47.33995907629348,12.861736334405144,-97.82227418883367
1686918334,-0.5407779076,2.5734807063,9.6406822554,-0.01313360262125733,-0.04810563750809371,-0.004276056667386108,-47.33995907629348,12.861736334405144,-97.82227418883367
1686918334,-0.5407779076,2.5734807063,9.6406822554,-0.012522737383059314,-0.04810563750809371,-0.004734205596034618,-47.33995907629348,12.861736334405144,-97.82227418883367
1686918334,-0.5335994398,2.5651058272,9.643075077999999,-0.012522737383059314,-0.04810563750809371,-0.004734205596034618,-47.33995907629348,12.861736334405144,-97.82227418883367
1686918334,-0.5335994398,2.5651058272,9.643075077999999,-0.012522737383059314,-0.04810563750809371,-0.004734205596034618,-47.33995907629348,12.861736334405144,-97.82227418883367
1686918334,-0.5335994398,2.5686950610999997,9.6502535458,-0.012828170002158322,-0.04871650274629172,-0.004734205596034618,-47.33995907629348,12.861736334405144,-97.82227418883367
1686918334,-0.5335994398,2.5686950610999997,9.6502535458,-0.012828170002158322,-0.04871650274629172,-0.004734205596034618,-47.33995907629348,12.861736334405144,-97.82227418883367
1686918334,-0.5335994398,2.5866412306,9.6478607232,-0.012370021073509811,-0.047189339650796684,-0.004123340357836604,-47.33995907629348,12.861736334405144,-97.82227418883367
1686918334,-0.5335994398,2.5866412306,9.6478607232,-0.012370021073509811,-0.047189339650796684,-0.004123340357836604,-47.33995907629348,12.861736334405144,-97.82227418883367
1686918334,-0.5443671415,2.596212521,9.6406822554,-0.012217304763960306,-0.04657847441259867,-0.004734205596034618,-47.33995907629348,12.861736334405144,-97.82227418883367
1686918334,-0.5443671415,2.596212521,9.6406822554,-0.012217304763960306,-0.04657847441259867,-0.004734205596034618,-47.33995907629348,12.861736334405144,-97.82227418883367
1686918334,-0.5419743189,2.6021945774999997,9.655039191,-0.013591751549905842,-0.04612032548395016,-0.004734205596034618,-47.33995907629348,12.861736334405144,-97.82227418883367
1686918334,-0.5419743189,2.6021945774999997,9.655039191,-0.013591751549905842,-0.04612032548395016,-0.004734205596034618,-47.33995907629348,12.861736334405144,-97.82227418883367
1686918334,-0.5335994398,2.5926232871,9.634700198900001,-0.01313360262125733,-0.04596760917440065,-0.00519235452468313,-47.33995907629348,12.861736334405144,-97.82227418883367
1686918334,-0.5335994398,2.5926232871,9.634700198900001,-0.01313360262125733,-0.04596760917440065,-0.00519235452468313,-47.33995907629348,12.861736334405144,-97.82227418883367
1686918334,-0.526420972,2.5639094158999995,9.667003304,-0.014508049407202865,-0.04871650274629172,-0.005955936072430649,-47.33995907629348,12.861736334405144,-97.82227418883367
1686918334,-0.526420972,2.5639094158999995,9.667003304,-0.014508049407202865,-0.04871650274629172,-0.005955936072430649,-47.33995907629348,12.861736334405144,-97.82227418883367
1686918334,-0.5359922624,2.5615165933,9.6478607232,-0.012980886311707827,-0.04673119072214818,-0.005039638215133627,-47.33995907629348,12.861736334405144,-97.82227418883367
1686918334,-0.5359922624,2.5615165933,9.6478607232,-0.012980886311707827,-0.04673119072214818,-0.005039638215133627,-47.33995907629348,12.861736334405144,-97.82227418883367
1686918334,-0.5515456093,2.5627130046,9.6574320136,-0.012828170002158322,-0.047647488579445195,-0.005345070834232635,-47.33995907629348,12.861736334405144,-97.82227418883367
1686918334,-0.5515456093,2.5627130046,9.6574320136,-0.012828170002158322,-0.047647488579445195,-0.005345070834232635,-47.33995907629348,12.861736334405144,-97.82227418883367
1686918334,-0.5431707302,2.5842484079999997,9.6514499571,-0.012675453692608817,-0.04673119072214818,-0.004581489286485115,-47.33995907629348,12.861736334405144,-97.82227418883367
1686918334,-0.5431707302,2.5842484079999997,9.6514499571,-0.012675453692608817,-0.04673119072214818,-0.004581489286485115,-47.33995907629348,12.861736334405144,-97.82227418883367
1686918334,-0.5503491979999999,2.5866412306,9.6358966102,-0.012370021073509811,-0.04627304179349966,-0.004734205596034618,-47.33995907629348,12.861736334405144,-97.82227418883367
1686918334,-0.5503491979999999,2.5866412306,9.6358966102,-0.012370021073509811,-0.04627304179349966,-0.004734205596034618,-47.33995907629348,12.861736334405144,-97.82227418883367
1686918334,-0.5395814963,2.5866412306,9.646664311899999,-0.012980886311707827,-0.048258353817643214,-0.004276056667386108,-47.33995907629348,12.861736334405144,-97.82227418883367
1686918334,-0.5395814963,2.5866412306,9.646664311899999,-0.012980886311707827,-0.048258353817643214,-0.004276056667386108,-47.33995907629348,12.861736334405144,-97.82227418883367
1686918334,-0.5395814963,2.5914268758000003,9.6502535458,-0.012370021073509811,-0.047494772269895694,-0.004123340357836604,-47.33995907629348,12.861736334405144,-97.82227418883367
1686918334,-0.5395814963,2.5914268758000003,9.6502535458,-0.012370021073509811,-0.047494772269895694,-0.004123340357836604,-47.33995907629348,12.861736334405144,-97.82227418883367
1686918334,-0.5395814963,2.5914268758000003,9.646664311899999,-0.012522737383059314,-0.04673119072214818,-0.005039638215133627,-47.33995907629348,12.861736334405144,-97.82227418883367
1686918334,-0.5407779076,2.5734807063,9.646664311899999,-0.012522737383059314,-0.04673119072214818,-0.005039638215133627,-47.33995907629348,12.861736334405144,-97.82227418883367
1686918334,-0.5407779076,2.5734807063,9.646664311899999,-0.01313360262125733,-0.047647488579445195,-0.004428772976935611,-47.33995907629348,12.861736334405144,-97.82227418883367
1686918334,-0.5359922624,2.5710878837,9.655039191,-0.01313360262125733,-0.047647488579445195,-0.004428772976935611,-47.33995907629348,12.861736334405144,-97.82227418883367
1686918334,-0.5359922624,2.5710878837,9.655039191,-0.01313360262125733,-0.04673119072214818,-0.004734205596034618,-47.33995907629348,12.861736334405144,-97.82227418883367
1686918334,-0.5335994398,2.5890340532,9.643075077999999,-0.012828170002158322,-0.04673119072214818,-0.004734205596034618,-47.33995907629348,12.861736334405144,-97.82227418883367
1686918334,-0.5335994398,2.5890340532,9.643075077999999,-0.012828170002158322,-0.04673119072214818,-0.004734205596034618,-47.33995907629348,12.861736334405144,-97.82227418883367
1686918334,-0.5347958510999999,2.5830519966999996,9.6574320136,-0.01313360262125733,-0.047647488579445195,-0.005497787143782138,-47.33995907629348,12.861736334405144,-97.82227418883367
1686918334,-0.5347958510999999,2.5830519966999996,9.6574320136,-0.01313360262125733,-0.047647488579445195,-0.005497787143782138,-47.33995907629348,12.861736334405144,-97.82227418883367
1686918334,-0.5431707302,2.5974089322999996,9.6370930215,-0.012675453692608817,-0.047494772269895694,-0.004886921905584123,-47.33995907629348,12.861736334405144,-97.82227418883367
1686918334,-0.5431707302,2.5974089322999996,9.6370930215,-0.012675453692608817,-0.047494772269895694,-0.004886921905584123,-47.33995907629348,12.861736334405144,-97.82227418883367
1686918334,-0.5479563754,2.5746771176,9.6514499571,-0.013591751549905842,-0.047342055960346185,-0.005345070834232635,-47.33995907629348,12.861736334405144,-97.82227418883367
1686918334,-0.5479563754,2.5746771176,9.6514499571,-0.013591751549905842,-0.047342055960346185,-0.005345070834232635,-47.33995907629348,12.861736334405144,-97.82227418883367
1686918334,-0.5371886737,2.5710878837,9.6490571345,-0.013591751549905842,-0.04612032548395016,-0.004734205596034618,-47.33995907629348,12.861736334405144,-97.82227418883367
1686918334,-0.5371886737,2.5710878837,9.6490571345,-0.013591751549905842,-0.04612032548395016,-0.004734205596034618,-47.33995907629348,12.861736334405144,-97.82227418883367
1686918334,-0.5335994398,2.5686950610999997,9.6514499571,-0.013744467859455345,-0.04596760917440065,-0.005039638215133627,-47.33995907629348,12.861736334405144,-97.82227418883367
1686918334,-0.5335994398,2.5686950610999997,9.6514499571,-0.013744467859455345,-0.04596760917440065,-0.005039638215133627,-47.33995907629348,12.861736334405144,-97.82227418883367
1686918334,-0.5324030285,2.5663022385,9.667003304,-0.013591751549905842,-0.047036623341247176,-0.004734205596034618,-47.33995907629348,12.861736334405144,-97.82227418883367
1686918334,-0.5324030285,2.5663022385,9.667003304,-0.013591751549905842,-0.047036623341247176,-0.004734205596034618,-47.33995907629348,12.861736334405144,-97.82227418883367
1686918334,-0.5455635528,2.5842484079999997,9.646664311899999,-0.012217304763960306,-0.04673119072214818,-0.004734205596034618,-47.33995907629348,12.861736334405144,-97.82227418883367
1686918334,-0.5455635528,2.5842484079999997,9.646664311899999,-0.012217304763960306,-0.04673119072214818,-0.004734205596034618,-47.33995907629348,12.861736334405144,-97.82227418883367
1686918334,-0.5443671415,2.5806591741,9.6514499571,-0.012370021073509811,-0.04627304179349966,-0.004123340357836604,-47.33995907629348,12.861736334405144,-97.82227418883367
1686918334,-0.5443671415,2.5806591741,9.6514499571,-0.012370021073509811,-0.04627304179349966,-0.004123340357836604,-47.33995907629348,12.861736334405144,-97.82227418883367
1686918334,-0.5371886737,2.5950161097,9.6538427797,-0.012522737383059314,-0.046883907031697675,-0.004276056667386108,-47.33995907629348,12.861736334405144,-97.82227418883367
1686918334,-0.5371886737,2.5950161097,9.6538427797,-0.012522737383059314,-0.046883907031697675,-0.004276056667386108,-47.33995907629348,12.861736334405144,-97.82227418883367
1686918334,-0.5419743189,2.5938196984,9.6406822554,-0.012522737383059314,-0.04657847441259867,-0.004123340357836604,-47.33995907629348,12.861736334405144,-97.82227418883367
1686918334,-0.5419743189,2.5938196984,9.6406822554,-0.012522737383059314,-0.04657847441259867,-0.004123340357836604,-47.33995907629348,12.861736334405144,-97.82227418883367
1686918334,-0.5335994398,2.5842484079999997,9.6478607232,-0.013439035240356337,-0.04642575810304917,-0.00519235452468313,-47.33995907629348,12.861736334405144,-97.82227418883367
1686918334,-0.5335994398,2.5842484079999997,9.6478607232,-0.013439035240356337,-0.04642575810304917,-0.00519235452468313,-47.33995907629348,12.861736334405144,-97.82227418883367
1686918334,-0.5335994398,2.5842484079999997,9.6478607232,-0.01313360262125733,-0.047342055960346185,-0.004886921905584123,-47.33995907629348,12.861736334405144,-97.82227418883367
1686918334,-0.5335994398,2.5926232871,9.6562356023,-0.01313360262125733,-0.047342055960346185,-0.004886921905584123,-47.33995907629348,12.861736334405144,-97.82227418883367
1686918334,-0.5335994398,2.5926232871,9.6562356023,-0.013286318930806833,-0.04581489286485115,-0.005345070834232635,-47.33995907629348,12.861736334405144,-97.82227418883367
1686918334,-0.5335994398,2.5770699402,9.6394858441,-0.013286318930806833,-0.04581489286485115,-0.005345070834232635,-47.33995907629348,12.861736334405144,-97.82227418883367
1686918334,-0.5335994398,2.5770699402,9.6394858441,-0.013286318930806833,-0.04581489286485115,-0.005650503453331642,-47.33995907629348,12.861736334405144,-97.82227418883367
1686918334,-0.538385085,2.5663022385,9.6502535458,-0.012980886311707827,-0.047494772269895694,-0.005650503453331642,-47.33995907629348,12.861736334405144,-97.82227418883367
1686918334,-0.538385085,2.5663022385,9.6502535458,-0.012980886311707827,-0.047494772269895694,-0.005650503453331642,-47.33995907629348,12.861736334405144,-97.82227418883367
1686918334,-0.5419743189,2.5686950610999997,9.6406822554,-0.01313360262125733,-0.04550946024575214,-0.004581489286485115,-47.33995907629348,12.861736334405144,-97.82227418883367
1686918334,-0.5419743189,2.5686950610999997,9.6406822554,-0.01313360262125733,-0.04550946024575214,-0.004581489286485115,-47.33995907629348,12.861736334405144,-97.82227418883367
1686918334,-0.5443671415,2.5734807063,9.646664311899999,-0.012980886311707827,-0.047494772269895694,-0.00519235452468313,-47.33995907629348,12.861736334405144,-97.82227418883367
1686918334,-0.5443671415,2.5734807063,9.646664311899999,-0.012980886311707827,-0.047494772269895694,-0.00519235452468313,-47.33995907629348,12.861736334405144,-97.82227418883367
1686918334,-0.5419743189,2.5806591741,9.6442714893,-0.012064588454410803,-0.04657847441259867,-0.004581489286485115,-47.33995907629348,12.861736334405144,-97.82227418883367
1686918334,-0.5419743189,2.5806591741,9.6442714893,-0.012064588454410803,-0.04657847441259867,-0.004581489286485115,-47.33995907629348,12.861736334405144,-97.82227418883367
1686918334,-0.5347958510999999,2.5794627628,9.6454679006,-0.012370021073509811,-0.046883907031697675,-0.003817907738737596,-47.33995907629348,12.861736334405144,-97.82227418883367
1686918334,-0.5347958510999999,2.5794627628,9.6454679006,-0.012370021073509811,-0.046883907031697675,-0.003817907738737596,-47.33995907629348,12.861736334405144,-97.82227418883367
1686918334,-0.5359922624,2.5914268758000003,9.643075077999999,-0.012522737383059314,-0.04673119072214818,-0.004581489286485115,-47.33995907629348,12.861736334405144,-97.82227418883367
1686918334,-0.5359922624,2.5914268758000003,9.643075077999999,-0.012522737383059314,-0.04673119072214818,-0.004581489286485115,-47.33995907629348,12.861736334405144,-97.82227418883367
1686918334,-0.5288137946,2.5806591741,9.6442714893,-0.012675453692608817,-0.046883907031697675,-0.005497787143782138,-47.33995907629348,12.861736334405144,-97.82227418883367
1686918335,-0.5288137946,2.5806591741,9.6442714893,-0.012675453692608817,-0.046883907031697675,-0.005497787143782138,-47.33995907629348,12.861736334405144,-97.82227418883367
1686918335,-0.5371886737,2.5770699402,9.6502535458,-0.013439035240356337,-0.047342055960346185,-0.005345070834232635,-47.33995907629348,12.861736334405144,-97.82227418883367
1686918335,-0.5371886737,2.5770699402,9.6502535458,-0.013439035240356337,-0.047342055960346185,-0.005345070834232635,-47.33995907629348,12.861736334405144,-97.82227418883367
1686918335,-0.5443671415,2.5806591741,9.643075077999999,-0.01313360262125733,-0.047342055960346185,-0.005039638215133627,-47.33995907629348,12.861736334405144,-97.82227418883367
1686918335,-0.5443671415,2.5806591741,9.643075077999999,-0.01313360262125733,-0.047342055960346185,-0.005039638215133627,-47.33995907629348,12.861736334405144,-97.82227418883367
1686918335,-0.5371886737,2.5794627628,9.6502535458,-0.012828170002158322,-0.04550946024575214,-0.004581489286485115,-47.33995907629348,12.861736334405144,-97.82227418883367
1686918335,-0.5371886737,2.5794627628,9.6502535458,-0.012828170002158322,-0.04550946024575214,-0.004581489286485115,-47.33995907629348,12.861736334405144,-97.82227418883367
1686918335,-0.5407779076,2.5830519966999996,9.6418786667,-0.013286318930806833,-0.047189339650796684,-0.004428772976935611,-47.33995907629348,12.861736334405144,-97.82227418883367
1686918335,-0.5407779076,2.5830519966999996,9.6418786667,-0.013286318930806833,-0.047189339650796684,-0.004428772976935611,-47.33995907629348,12.861736334405144,-97.82227418883367
1686918335,-0.5324030285,2.5686950610999997,9.6406822554,-0.013591751549905842,-0.04673119072214818,-0.004581489286485115,-47.33995907629348,12.861736334405144,-97.82227418883367
1686918335,-0.5324030285,2.5686950610999997,9.6406822554,-0.013591751549905842,-0.04673119072214818,-0.004581489286485115,-47.33995907629348,12.861736334405144,-97.82227418883367
1686918335,-0.5324030285,2.5686950610999997,9.6406822554,-0.01313360262125733,-0.045662176555301644,-0.0039706240482871,-47.33995907629348,12.861736334405144,-97.82227418883367
1686918335,-0.5288137946,2.5866412306,9.631110965,-0.01313360262125733,-0.045662176555301644,-0.0039706240482871,-47.33995907629348,12.861736334405144,-97.82227418883367
1686918335,-0.5288137946,2.5866412306,9.631110965,-0.012828170002158322,-0.047494772269895694,-0.005803219762881146,-47.33995907629348,12.861736334405144,-97.82227418883367
1686918335,-0.5431707302,2.5758735289,9.646664311899999,-0.012828170002158322,-0.047494772269895694,-0.005803219762881146,-47.33995907629348,12.861736334405144,-97.82227418883367
1686918335,-0.5431707302,2.5758735289,9.646664311899999,-0.012828170002158322,-0.047494772269895694,-0.005803219762881146,-47.33995907629348,12.861736334405144,-97.82227418883367
1686918335,-0.5407779076,2.5902304645,9.646664311899999,-0.012064588454410803,-0.04856378643674222,-0.004428772976935611,-47.33995907629348,12.861736334405144,-97.82227418883367
1686918335,-0.5407779076,2.5902304645,9.646664311899999,-0.012064588454410803,-0.04856378643674222,-0.004428772976935611,-47.33995907629348,12.861736334405144,-97.82227418883367
1686918335,-0.5407779076,2.5830519966999996,9.6394858441,-0.012217304763960306,-0.048258353817643214,-0.005955936072430649,-47.33995907629348,12.861736334405144,-97.82227418883367
1686918335,-0.5407779076,2.5830519966999996,9.6394858441,-0.012217304763960306,-0.048258353817643214,-0.005955936072430649,-47.33995907629348,12.861736334405144,-97.82227418883367
1686918335,-0.5443671415,2.5674986498,9.6490571345,-0.013286318930806833,-0.04642575810304917,-0.005039638215133627,-47.33995907629348,12.861736334405144,-97.82227418883367
1686918335,-0.5443671415,2.5674986498,9.6490571345,-0.013286318930806833,-0.04642575810304917,-0.005039638215133627,-47.33995907629348,12.861736334405144,-97.82227418883367
1686918335,-0.5324030285,2.5938196984,9.655039191,-0.013439035240356337,-0.047342055960346185,-0.003665191429188092,-47.33995907629348,12.861736334405144,-97.82227418883367
1686918335,-0.5324030285,2.5938196984,9.655039191,-0.013439035240356337,-0.047342055960346185,-0.003665191429188092,-47.33995907629348,12.861736334405144,-97.82227418883367
1686918335,-0.514456859,2.5890340532,9.6490571345,-0.012217304763960306,-0.046883907031697675,-0.004428772976935611,-47.33995907629348,12.861736334405144,-97.82227418883367
1686918335,-0.514456859,2.5890340532,9.6490571345,-0.012217304763960306,-0.046883907031697675,-0.004428772976935611,-47.33995907629348,12.861736334405144,-97.82227418883367
1686918335,-0.5276173833,2.5842484079999997,9.6574320136,-0.01313360262125733,-0.047036623341247176,-0.005345070834232635,-47.33995907629348,12.861736334405144,-97.82227418883367
1686918335,-0.5276173833,2.5842484079999997,9.6574320136,-0.01313360262125733,-0.047036623341247176,-0.005345070834232635,-47.33995907629348,12.861736334405144,-97.82227418883367
1686918335,-0.5443671415,2.5770699402,9.6514499571,-0.01313360262125733,-0.04642575810304917,-0.00519235452468313,-47.33995907629348,12.861736334405144,-97.82227418883367
1686918335,-0.5443671415,2.5770699402,9.6514499571,-0.01313360262125733,-0.04642575810304917,-0.00519235452468313,-47.33995907629348,12.861736334405144,-97.82227418883367
1686918335,-0.5455635528,2.572284295,9.643075077999999,-0.012828170002158322,-0.04657847441259867,-0.005497787143782138,-47.33995907629348,12.861736334405144,-97.82227418883367
1686918335,-0.5455635528,2.572284295,9.643075077999999,-0.012828170002158322,-0.04657847441259867,-0.005497787143782138,-47.33995907629348,12.861736334405144,-97.82227418883367
1686918335,-0.5503491979999999,2.5758735289,9.661021247499999,-0.01313360262125733,-0.047189339650796684,-0.005039638215133627,-47.33995907629348,12.861736334405144,-97.82227418883367
1686918335,-0.5503491979999999,2.5758735289,9.661021247499999,-0.01313360262125733,-0.047189339650796684,-0.005039638215133627,-47.33995907629348,12.861736334405144,-97.82227418883367
1686918335,-0.5407779076,2.572284295,9.6586284249,-0.012828170002158322,-0.046883907031697675,-0.004276056667386108,-47.33995907629348,12.861736334405144,-97.82227418883367
1686918335,-0.5407779076,2.572284295,9.6586284249,-0.012828170002158322,-0.046883907031697675,-0.004276056667386108,-47.33995907629348,12.861736334405144,-97.82227418883367
1686918335,-0.5407779076,2.5818555854,9.6562356023,-0.012217304763960306,-0.047342055960346185,-0.004123340357836604,-47.33995907629348,12.861736334405144,-97.82227418883367
1686918335,-0.5407779076,2.5818555854,9.6562356023,-0.012217304763960306,-0.047342055960346185,-0.004123340357836604,-47.33995907629348,12.861736334405144,-97.82227418883367
1686918335,-0.5359922624,2.5782663514999995,9.655039191,-0.012522737383059314,-0.048411070127192715,-0.005039638215133627,-47.33995907629348,12.861736334405144,-97.82227418883367
1686918335,-0.5359922624,2.5782663514999995,9.655039191,-0.012522737383059314,-0.048411070127192715,-0.005039638215133627,-47.33995907629348,12.861736334405144,-97.82227418883367
1686918335,-0.5359922624,2.5782663514999995,9.655039191,-0.012370021073509811,-0.047952921198544204,-0.004276056667386108,-47.33995907629348,12.861736334405144,-97.82227418883367
1686918335,-0.5312066172,2.5890340532,9.6538427797,-0.012370021073509811,-0.047952921198544204,-0.004276056667386108,-47.33995907629348,12.861736334405144,-97.82227418883367
1686918335,-0.5312066172,2.5890340532,9.6538427797,-0.012828170002158322,-0.047647488579445195,-0.00519235452468313,-47.33995907629348,12.861736334405144,-97.82227418883367
1686918335,-0.5335994398,2.5914268758000003,9.6586284249,-0.012828170002158322,-0.047647488579445195,-0.00519235452468313,-47.33995907629348,12.861736334405144,-97.82227418883367
1686918335,-0.5335994398,2.5914268758000003,9.6586284249,-0.012828170002158322,-0.047647488579445195,-0.00519235452468313,-47.33995907629348,12.861736334405144,-97.82227418883367
1686918335,-0.5300102059,2.5902304645,9.6490571345,-0.012980886311707827,-0.045356743936202634,-0.004886921905584123,-47.33995907629348,12.861736334405144,-97.82227418883367
1686918335,-0.5300102059,2.5902304645,9.6490571345,-0.012980886311707827,-0.045356743936202634,-0.004886921905584123,-47.33995907629348,12.861736334405144,-97.82227418883367
1686918335,-0.5371886737,2.5794627628,9.6586284249,-0.012980886311707827,-0.046883907031697675,-0.005803219762881146,-47.33995907629348,12.861736334405144,-97.82227418883367
1686918335,-0.5371886737,2.5794627628,9.6586284249,-0.012980886311707827,-0.046883907031697675,-0.005803219762881146,-47.33995907629348,12.861736334405144,-97.82227418883367
1686918335,-0.538385085,2.5758735289,9.6586284249,-0.012828170002158322,-0.04642575810304917,-0.005497787143782138,-47.33995907629348,12.861736334405144,-97.82227418883367
1686918335,-0.538385085,2.5758735289,9.6586284249,-0.012828170002158322,-0.04642575810304917,-0.005497787143782138,-47.33995907629348,12.861736334405144,-97.82227418883367
1686918335,-0.5347958510999999,2.5663022385,9.655039191,-0.012370021073509811,-0.047952921198544204,-0.005345070834232635,-47.33995907629348,12.861736334405144,-97.82227418883367
1686918335,-0.5347958510999999,2.5663022385,9.655039191,-0.012370021073509811,-0.047952921198544204,-0.005345070834232635,-47.33995907629348,12.861736334405144,-97.82227418883367
1686918335,-0.5479563754,2.5782663514999995,9.6598248362,-0.012828170002158322,-0.047189339650796684,-0.00519235452468313,-47.33995907629348,12.861736334405144,-97.82227418883367
1686918335,-0.5479563754,2.5782663514999995,9.6598248362,-0.012828170002158322,-0.047189339650796684,-0.00519235452468313,-47.33995907629348,12.861736334405144,-97.82227418883367
1686918335,-0.5347958510999999,2.5770699402,9.6574320136,-0.012370021073509811,-0.04856378643674222,-0.004428772976935611,-47.33995907629348,12.861736334405144,-97.82227418883367
1686918335,-0.5347958510999999,2.5770699402,9.6574320136,-0.012370021073509811,-0.04856378643674222,-0.004428772976935611,-47.33995907629348,12.861736334405144,-97.82227418883367
1686918335,-0.5419743189,2.5806591741,9.655039191,-0.012675453692608817,-0.047494772269895694,-0.004276056667386108,-47.33995907629348,12.861736334405144,-97.82227418883367
1686918335,-0.5419743189,2.5806591741,9.655039191,-0.012675453692608817,-0.047494772269895694,-0.004276056667386108,-47.33995907629348,12.861736334405144,-97.82227418883367
1686918335,-0.5419743189,2.5854448193,9.6562356023,-0.012522737383059314,-0.047189339650796684,-0.004428772976935611,-47.33995907629348,12.861736334405144,-97.82227418883367
1686918335,-0.5419743189,2.5854448193,9.6562356023,-0.012522737383059314,-0.047189339650796684,-0.004428772976935611,-47.33995907629348,12.861736334405144,-97.82227418883367
1686918335,-0.538385085,2.5902304645,9.6562356023,-0.012675453692608817,-0.04612032548395016,-0.004123340357836604,-47.33995907629348,12.861736334405144,-97.82227418883367
1686918335,-0.538385085,2.5902304645,9.6562356023,-0.012675453692608817,-0.04612032548395016,-0.004123340357836604,-47.33995907629348,12.861736334405144,-97.82227418883367
1686918335,-0.5371886737,2.5842484079999997,9.6514499571,-0.012828170002158322,-0.04642575810304917,-0.004581489286485115,-47.33995907629348,12.861736334405144,-97.82227418883367
1686918335,-0.5371886737,2.5842484079999997,9.6514499571,-0.012828170002158322,-0.04642575810304917,-0.004581489286485115,-47.33995907629348,12.861736334405144,-97.82227418883367
1686918335,-0.5252245607,2.5746771176,9.655039191,-0.012828170002158322,-0.047494772269895694,-0.004581489286485115,-47.33995907629348,12.861736334405144,-97.82227418883367
1686918335,-0.5252245607,2.5746771176,9.655039191,-0.012828170002158322,-0.047494772269895694,-0.004581489286485115,-47.33995907629348,12.861736334405144,-97.82227418883367
1686918335,-0.5252245607,2.5746771176,9.6442714893,-0.012522737383059314,-0.047036623341247176,-0.004734205596034618,-47.33995907629348,12.861736334405144,-97.82227418883367
1686918335,-0.5312066172,2.5746771176,9.6442714893,-0.012522737383059314,-0.047036623341247176,-0.004734205596034618,-47.33995907629348,12.861736334405144,-97.82227418883367
1686918335,-0.5312066172,2.5746771176,9.6442714893,-0.012370021073509811,-0.0478002048889947,-0.005039638215133627,-47.33995907629348,12.861736334405144,-97.82227418883367
1686918335,-0.5347958510999999,2.5782663514999995,9.6490571345,-0.012370021073509811,-0.0478002048889947,-0.005039638215133627,-47.33995907629348,12.861736334405144,-97.82227418883367
1686918335,-0.5347958510999999,2.5782663514999995,9.6490571345,-0.012980886311707827,-0.047189339650796684,-0.004886921905584123,-47.33995907629348,12.861736334405144,-97.82227418883367
1686918335,-0.5312066172,2.5830519966999996,9.661021247499999,-0.012980886311707827,-0.047189339650796684,-0.004886921905584123,-47.33995907629348,12.861736334405144,-97.82227418883367
1686918335,-0.5312066172,2.5830519966999996,9.661021247499999,-0.012980886311707827,-0.047189339650796684,-0.004886921905584123,-47.33995907629348,12.861736334405144,-97.82227418883367
1686918335,-0.538385085,2.5890340532,9.6514499571,-0.012675453692608817,-0.04627304179349966,-0.00519235452468313,-47.33995907629348,12.861736334405144,-97.82227418883367
1686918335,-0.538385085,2.5890340532,9.6514499571,-0.012675453692608817,-0.04627304179349966,-0.00519235452468313,-47.33995907629348,12.861736334405144,-97.82227418883367
1686918335,-0.5503491979999999,2.5806591741,9.6502535458,-0.012522737383059314,-0.047189339650796684,-0.006261368691529657,-47.33995907629348,12.861736334405144,-97.82227418883367
1686918335,-0.5503491979999999,2.5806591741,9.6502535458,-0.012522737383059314,-0.047189339650796684,-0.006261368691529657,-47.33995907629348,12.861736334405144,-97.82227418883367
1686918335,-0.5539384319,2.5914268758000003,9.6526463684,-0.012980886311707827,-0.047036623341247176,-0.005345070834232635,-47.33995907629348,12.861736334405144,-97.82227418883367
1686918335,-0.5539384319,2.5914268758000003,9.6526463684,-0.012980886311707827,-0.047036623341247176,-0.005345070834232635,-47.33995907629348,12.861736334405144,-97.82227418883367
1686918335,-0.5431707302,2.5794627628,9.665806892700001,-0.01313360262125733,-0.047342055960346185,-0.004886921905584123,-47.33995907629348,12.861736334405144,-97.82227418883367
1686918335,-0.5431707302,2.5794627628,9.665806892700001,-0.01313360262125733,-0.047342055960346185,-0.004886921905584123,-47.33995907629348,12.861736334405144,-97.82227418883367
1686918335,-0.538385085,2.5663022385,9.6562356023,-0.01313360262125733,-0.047342055960346185,-0.005039638215133627,-47.33995907629348,12.861736334405144,-97.82227418883367
1686918335,-0.538385085,2.5663022385,9.6562356023,-0.01313360262125733,-0.047342055960346185,-0.005039638215133627,-47.33995907629348,12.861736334405144,-97.82227418883367
1686918335,-0.526420972,2.5734807063,9.6586284249,-0.013439035240356337,-0.04902193536539073,-0.0039706240482871,-47.33995907629348,12.861736334405144,-97.82227418883367
1686918335,-0.526420972,2.5734807063,9.6586284249,-0.013439035240356337,-0.04902193536539073,-0.0039706240482871,-47.33995907629348,12.861736334405144,-97.82227418883367
1686918335,-0.5288137946,2.5770699402,9.6490571345,-0.011911872144861299,-0.046883907031697675,-0.004428772976935611,-47.33995907629348,12.861736334405144,-97.82227418883367
1686918335,-0.5288137946,2.5770699402,9.6490571345,-0.011911872144861299,-0.046883907031697675,-0.004428772976935611,-47.33995907629348,12.861736334405144,-97.82227418883367
1686918335,-0.5335994398,2.5818555854,9.655039191,-0.012370021073509811,-0.047189339650796684,-0.004734205596034618,-47.33995907629348,12.861736334405144,-97.82227418883367
1686918335,-0.5335994398,2.5818555854,9.655039191,-0.012370021073509811,-0.047189339650796684,-0.004734205596034618,-47.33995907629348,12.861736334405144,-97.82227418883367
1686918335,-0.5395814963,2.5938196984,9.643075077999999,-0.012522737383059314,-0.04612032548395016,-0.0039706240482871,-47.33995907629348,12.861736334405144,-97.82227418883367
1686918335,-0.5395814963,2.5938196984,9.643075077999999,-0.012522737383059314,-0.04612032548395016,-0.0039706240482871,-47.33995907629348,12.861736334405144,-97.82227418883367
1686918335,-0.5395814963,2.5938196984,9.643075077999999,-0.012828170002158322,-0.04657847441259867,-0.005650503453331642,-47.33995907629348,12.861736334405144,-97.82227418883367
1686918335,-0.5479563754,2.5890340532,9.6418786667,-0.012828170002158322,-0.04657847441259867,-0.005650503453331642,-47.33995907629348,12.861736334405144,-97.82227418883367
1686918335,-0.5335994398,2.5830519966999996,9.6490571345,-0.01313360262125733,-0.04673119072214818,-0.005345070834232635,-47.33995907629348,12.861736334405144,-97.82227418883367
1686918335,-0.5335994398,2.5830519966999996,9.6490571345,-0.01313360262125733,-0.04673119072214818,-0.005345070834232635,-47.33995907629348,12.861736334405144,-97.82227418883367
1686918335,-0.5335994398,2.5830519966999996,9.6478607232,-0.01313360262125733,-0.04673119072214818,-0.005497787143782138,-47.33995907629348,12.861736334405144,-97.82227418883367
1686918335,-0.5419743189,2.5842484079999997,9.6478607232,-0.01313360262125733,-0.04673119072214818,-0.005497787143782138,-47.33995907629348,12.861736334405144,-97.82227418883367
1686918335,-0.5419743189,2.5842484079999997,9.6478607232,-0.012980886311707827,-0.04810563750809371,-0.006108652381980153,-47.33995907629348,12.861736334405144,-97.82227418883367
1686918335,-0.538385085,2.572284295,9.6526463684,-0.012980886311707827,-0.04810563750809371,-0.006108652381980153,-47.33995907629348,12.861736334405144,-97.82227418883367
1686918335,-0.538385085,2.572284295,9.6526463684,-0.012370021073509811,-0.047036623341247176,-0.004276056667386108,-47.33995907629348,12.861736334405144,-97.82227418883367
1686918335,-0.5335994398,2.5794627628,9.6418786667,-0.012370021073509811,-0.047036623341247176,-0.004276056667386108,-47.33995907629348,12.861736334405144,-97.82227418883367
1686918335,-0.5335994398,2.5794627628,9.6418786667,-0.012370021073509811,-0.047036623341247176,-0.004276056667386108,-47.33995907629348,12.861736334405144,-97.82227418883367
1686918335,-0.5335994398,2.5854448193,9.643075077999999,-0.012675453692608817,-0.047189339650796684,-0.004428772976935611,-47.33995907629348,12.861736334405144,-97.82227418883367
1686918336,-0.5335994398,2.5854448193,9.643075077999999,-0.012675453692608817,-0.047189339650796684,-0.004428772976935611,-47.33995907629348,12.861736334405144,-97.82227418883367
1686918336,-0.5347958510999999,2.5746771176,9.6478607232,-0.012828170002158322,-0.0478002048889947,-0.005039638215133627,-47.33995907629348,12.861736334405144,-97.82227418883367
1686918336,-0.5347958510999999,2.5746771176,9.6478607232,-0.012828170002158322,-0.0478002048889947,-0.005039638215133627,-47.33995907629348,12.861736334405144,-97.82227418883367
1686918336,-0.5395814963,2.596212521,9.6406822554,-0.012675453692608817,-0.04642575810304917,-0.004276056667386108,-47.33995907629348,12.861736334405144,-97.82227418883367
1686918336,-0.5395814963,2.596212521,9.6406822554,-0.012675453692608817,-0.04642575810304917,-0.004276056667386108,-47.33995907629348,12.861736334405144,-97.82227418883367
1686918336,-0.5431707302,2.5878376418999998,9.643075077999999,-0.01313360262125733,-0.046883907031697675,-0.005345070834232635,-47.33995907629348,12.861736334405144,-97.82227418883367
1686918336,-0.5431707302,2.5878376418999998,9.643075077999999,-0.01313360262125733,-0.046883907031697675,-0.005345070834232635,-47.33995907629348,12.861736334405144,-97.82227418883367
1686918336,-0.538385085,2.572284295,9.6490571345,-0.01313360262125733,-0.04657847441259867,-0.005039638215133627,-47.33995907629348,12.861736334405144,-97.82227418883367
1686918336,-0.538385085,2.572284295,9.6490571345,-0.01313360262125733,-0.04657847441259867,-0.005039638215133627,-47.33995907629348,12.861736334405144,-97.82227418883367
1686918336,-0.5371886737,2.5782663514999995,9.6574320136,-0.013286318930806833,-0.04642575810304917,-0.004428772976935611,-47.33995907629348,12.861736334405144,-97.82227418883367
1686918336,-0.5371886737,2.5782663514999995,9.6574320136,-0.013286318930806833,-0.04642575810304917,-0.004428772976935611,-47.33995907629348,12.861736334405144,-97.82227418883367
1686918336,-0.5431707302,2.5674986498,9.6526463684,-0.013591751549905842,-0.04642575810304917,-0.004734205596034618,-47.33995907629348,12.861736334405144,-97.82227418883367
1686918336,-0.5431707302,2.5674986498,9.6526463684,-0.013591751549905842,-0.04642575810304917,-0.004734205596034618,-47.33995907629348,12.861736334405144,-97.82227418883367
1686918336,-0.5419743189,2.5782663514999995,9.6442714893,-0.012522737383059314,-0.04520402762665313,-0.004581489286485115,-47.33995907629348,12.861736334405144,-97.82227418883367
1686918336,-0.5419743189,2.5782663514999995,9.6442714893,-0.012522737383059314,-0.04520402762665313,-0.004581489286485115,-47.33995907629348,12.861736334405144,-97.82227418883367
1686918336,-0.5335994398,2.5902304645,9.6646104814,-0.01313360262125733,-0.04474587869800463,-0.004276056667386108,-47.33995907629348,12.861736334405144,-97.82227418883367
1686918336,-0.5335994398,2.5902304645,9.6646104814,-0.01313360262125733,-0.04474587869800463,-0.004276056667386108,-47.33995907629348,12.861736334405144,-97.82227418883367
1686918336,-0.5335994398,2.5902304645,9.6646104814,-0.012370021073509811,-0.045662176555301644,-0.004428772976935611,-47.33995907629348,12.861736334405144,-97.82227418883367
1686918336,-0.5371886737,2.5890340532,9.6442714893,-0.012370021073509811,-0.045662176555301644,-0.004428772976935611,-47.33995907629348,12.861736334405144,-97.82227418883367
1686918336,-0.5371886737,2.5890340532,9.6442714893,-0.01313360262125733,-0.04612032548395016,-0.00519235452468313,-47.33995907629348,12.861736334405144,-97.82227418883367
1686918336,-0.5443671415,2.5866412306,9.6514499571,-0.01313360262125733,-0.04612032548395016,-0.00519235452468313,-47.33995907629348,12.861736334405144,-97.82227418883367
1686918336,-0.5300102059,2.5746771176,9.6502535458,-0.01313360262125733,-0.047036623341247176,-0.00519235452468313,-47.33995907629348,12.861736334405144,-97.82227418883367
1686918336,-0.5300102059,2.5746771176,9.6502535458,-0.01313360262125733,-0.047036623341247176,-0.00519235452468313,-47.33995907629348,12.861736334405144,-97.82227418883367
1686918336,-0.5300102059,2.5746771176,9.6502535458,-0.012675453692608817,-0.047036623341247176,-0.00519235452468313,-47.33995907629348,12.861736334405144,-97.82227418883367
1686918336,-0.5300102059,2.5710878837,9.6586284249,-0.012675453692608817,-0.047036623341247176,-0.00519235452468313,-47.33995907629348,12.861736334405144,-97.82227418883367
1686918336,-0.5300102059,2.5710878837,9.6586284249,-0.012828170002158322,-0.047952921198544204,-0.005650503453331642,-47.33995907629348,12.861736334405144,-97.82227418883367
1686918336,-0.5347958510999999,2.5698914723999997,9.665806892700001,-0.012828170002158322,-0.047952921198544204,-0.005650503453331642,-47.33995907629348,12.861736334405144,-97.82227418883367
1686918336,-0.5347958510999999,2.5698914723999997,9.665806892700001,-0.012828170002158322,-0.047952921198544204,-0.005650503453331642,-47.33995907629348,12.861736334405144,-97.82227418883367
1686918336,-0.5371886737,2.5866412306,9.646664311899999,-0.012370021073509811,-0.04642575810304917,-0.004428772976935611,-47.33995907629348,12.861736334405144,-97.82227418883367
1686918336,-0.5371886737,2.5866412306,9.646664311899999,-0.012370021073509811,-0.04642575810304917,-0.004428772976935611,-47.33995907629348,12.861736334405144,-97.82227418883367
1686918336,-0.5431707302,2.5866412306,9.6526463684,-0.012828170002158322,-0.04550946024575214,-0.004886921905584123,-47.33995907629348,12.861736334405144,-97.82227418883367
1686918336,-0.5431707302,2.5866412306,9.6526463684,-0.012828170002158322,-0.04550946024575214,-0.004886921905584123,-47.33995907629348,12.861736334405144,-97.82227418883367
1686918336,-0.5395814963,2.5890340532,9.6526463684,-0.013286318930806833,-0.04627304179349966,-0.004581489286485115,-47.33995907629348,12.861736334405144,-97.82227418883367
1686918336,-0.5395814963,2.5890340532,9.6526463684,-0.013286318930806833,-0.04627304179349966,-0.004581489286485115,-47.33995907629348,12.861736334405144,-97.82227418883367
1686918336,-0.5515456093,2.5878376418999998,9.6502535458,-0.01313360262125733,-0.047036623341247176,-0.004428772976935611,-47.33995907629348,12.861736334405144,-97.82227418883367
1686918336,-0.5515456093,2.5878376418999998,9.6502535458,-0.01313360262125733,-0.047036623341247176,-0.004428772976935611,-47.33995907629348,12.861736334405144,-97.82227418883367
1686918336,-0.5335994398,2.5830519966999996,9.6538427797,-0.01313360262125733,-0.04642575810304917,-0.005039638215133627,-47.33995907629348,12.861736334405144,-97.82227418883367
1686918336,-0.5335994398,2.5830519966999996,9.6538427797,-0.01313360262125733,-0.04642575810304917,-0.005039638215133627,-47.33995907629348,12.861736334405144,-97.82227418883367
1686918336,-0.5395814963,2.5866412306,9.6514499571,-0.013286318930806833,-0.047647488579445195,-0.005650503453331642,-47.33995907629348,12.861736334405144,-97.82227418883367
1686918336,-0.5395814963,2.5866412306,9.6514499571,-0.013286318930806833,-0.047647488579445195,-0.005650503453331642,-47.33995907629348,12.861736334405144,-97.82227418883367
1686918336,-0.5371886737,2.5746771176,9.6442714893,-0.012980886311707827,-0.04657847441259867,-0.005345070834232635,-47.33995907629348,12.861736334405144,-97.82227418883367
1686918336,-0.5371886737,2.5746771176,9.6442714893,-0.012980886311707827,-0.04657847441259867,-0.005345070834232635,-47.33995907629348,12.861736334405144,-97.82227418883367
1686918336,-0.5347958510999999,2.5698914723999997,9.6574320136,-0.012522737383059314,-0.047494772269895694,-0.005650503453331642,-47.33995907629348,12.861736334405144,-97.82227418883367
1686918336,-0.5347958510999999,2.5698914723999997,9.6574320136,-0.012522737383059314,-0.047494772269895694,-0.005650503453331642,-47.33995907629348,12.861736334405144,-97.82227418883367
1686918336,-0.5467599640999999,2.5794627628,9.6502535458,-0.012370021073509811,-0.047036623341247176,-0.004734205596034618,-47.33995907629348,12.861736334405144,-97.82227418883367
1686918336,-0.5467599640999999,2.5794627628,9.6502535458,-0.012370021073509811,-0.047036623341247176,-0.004734205596034618,-47.33995907629348,12.861736334405144,-97.82227418883367
1686918336,-0.5359922624,2.5758735289,9.6538427797,-0.012828170002158322,-0.04627304179349966,-0.004581489286485115,-47.33995907629348,12.861736334405144,-97.82227418883367
1686918336,-0.5359922624,2.5758735289,9.6538427797,-0.012828170002158322,-0.04627304179349966,-0.004581489286485115,-47.33995907629348,12.861736334405144,-97.82227418883367
1686918336,-0.5335994398,2.5806591741,9.6538427797,-0.012675453692608817,-0.04581489286485115,-0.003817907738737596,-47.33995907629348,12.861736334405144,-97.82227418883367
1686918336,-0.5335994398,2.5806591741,9.6538427797,-0.012675453692608817,-0.04581489286485115,-0.003817907738737596,-47.33995907629348,12.861736334405144,-97.82227418883367
1686918336,-0.5335994398,2.5806591741,9.6538427797,-0.012980886311707827,-0.04596760917440065,-0.004276056667386108,-47.33995907629348,12.861736334405144,-97.82227418883367
1686918336,-0.5347958510999999,2.5842484079999997,9.6490571345,-0.012980886311707827,-0.04596760917440065,-0.004276056667386108,-47.33995907629348,12.861736334405144,-97.82227418883367
1686918336,-0.5300102059,2.5866412306,9.6514499571,-0.01313360262125733,-0.047342055960346185,-0.00519235452468313,-47.33995907629348,12.861736334405144,-97.82227418883367
1686918336,-0.5300102059,2.5866412306,9.6514499571,-0.01313360262125733,-0.047342055960346185,-0.00519235452468313,-47.33995907629348,12.861736334405144,-97.82227418883367
1686918336,-0.5300102059,2.5866412306,9.646664311899999,-0.01313360262125733,-0.046883907031697675,-0.004886921905584123,-47.33995907629348,12.861736334405144,-97.82227418883367
1686918336,-0.5431707302,2.5878376418999998,9.646664311899999,-0.01313360262125733,-0.046883907031697675,-0.004886921905584123,-47.33995907629348,12.861736334405144,-97.82227418883367
1686918336,-0.5431707302,2.5878376418999998,9.646664311899999,-0.012828170002158322,-0.046883907031697675,-0.004734205596034618,-47.33995907629348,12.861736334405144,-97.82227418883367
1686918336,-0.5395814963,2.5818555854,9.6442714893,-0.012828170002158322,-0.046883907031697675,-0.004734205596034618,-47.33995907629348,12.861736334405144,-97.82227418883367
1686918336,-0.5395814963,2.5818555854,9.6442714893,-0.012828170002158322,-0.046883907031697675,-0.004886921905584123,-47.33995907629348,12.861736334405144,-97.82227418883367
1686918336,-0.5491527867,2.5818555854,9.6502535458,-0.012675453692608817,-0.047189339650796684,-0.004886921905584123,-47.33995907629348,12.861736334405144,-97.82227418883367
1686918336,-0.5491527867,2.5818555854,9.6502535458,-0.012675453692608817,-0.047189339650796684,-0.004886921905584123,-47.33995907629348,12.861736334405144,-97.82227418883367
1686918336,-0.5431707302,2.5758735289,9.6526463684,-0.013286318930806833,-0.046883907031697675,-0.004581489286485115,-47.33995907629348,12.861736334405144,-97.82227418883367
1686918336,-0.5431707302,2.5758735289,9.6526463684,-0.013286318930806833,-0.046883907031697675,-0.004581489286485115,-47.33995907629348,12.861736334405144,-97.82227418883367
1686918336,-0.5288137946,2.5830519966999996,9.6514499571,-0.012675453692608817,-0.046883907031697675,-0.004734205596034618,-47.33995907629348,12.861736334405144,-97.82227418883367
1686918336,-0.5288137946,2.5830519966999996,9.6514499571,-0.012675453692608817,-0.046883907031697675,-0.004734205596034618,-47.33995907629348,12.861736334405144,-97.82227418883367
1686918336,-0.5300102059,2.5639094158999995,9.6538427797,-0.012522737383059314,-0.047342055960346185,-0.005345070834232635,-47.33995907629348,12.861736334405144,-97.82227418883367
1686918336,-0.5300102059,2.5639094158999995,9.6538427797,-0.012522737383059314,-0.047342055960346185,-0.005345070834232635,-47.33995907629348,12.861736334405144,-97.82227418883367
1686918336,-0.5312066172,2.5734807063,9.6502535458,-0.012828170002158322,-0.04810563750809371,-0.004123340357836604,-47.33995907629348,12.861736334405144,-97.82227418883367
1686918336,-0.5312066172,2.5734807063,9.6502535458,-0.012828170002158322,-0.04810563750809371,-0.004123340357836604,-47.33995907629348,12.861736334405144,-97.82227418883367
1686918336,-0.5347958510999999,2.5830519966999996,9.6478607232,-0.012064588454410803,-0.047036623341247176,-0.004428772976935611,-47.33995907629348,12.861736334405144,-97.82227418883367
1686918336,-0.5347958510999999,2.5830519966999996,9.6478607232,-0.012064588454410803,-0.047036623341247176,-0.004428772976935611,-47.33995907629348,12.861736334405144,-97.82227418883367
1686918336,-0.5407779076,2.5830519966999996,9.6514499571,-0.012522737383059314,-0.046883907031697675,-0.005039638215133627,-47.33995907629348,12.861736334405144,-97.82227418883367
1686918336,-0.5407779076,2.5830519966999996,9.6514499571,-0.012522737383059314,-0.046883907031697675,-0.005039638215133627,-47.33995907629348,12.861736334405144,-97.82227418883367
1686918336,-0.5467599640999999,2.5926232871,9.6502535458,-0.012522737383059314,-0.04657847441259867,-0.004734205596034618,-47.33995907629348,12.861736334405144,-97.82227418883367
1686918336,-0.5467599640999999,2.5926232871,9.6502535458,-0.012522737383059314,-0.04657847441259867,-0.004734205596034618,-47.33995907629348,12.861736334405144,-97.82227418883367
1686918336,-0.5395814963,2.5782663514999995,9.6454679006,-0.012675453692608817,-0.0478002048889947,-0.005039638215133627,-47.33995907629348,12.861736334405144,-97.82227418883367
1686918336,-0.5395814963,2.5782663514999995,9.6454679006,-0.012675453692608817,-0.0478002048889947,-0.005039638215133627,-47.33995907629348,12.861736334405144,-97.82227418883367
1686918336,-0.5395814963,2.5746771176,9.6574320136,-0.01313360262125733,-0.047952921198544204,-0.005345070834232635,-47.33995907629348,12.861736334405144,-97.82227418883367
1686918336,-0.5395814963,2.5746771176,9.6574320136,-0.01313360262125733,-0.047952921198544204,-0.005345070834232635,-47.33995907629348,12.861736334405144,-97.82227418883367
1686918336,-0.5395814963,2.5746771176,9.6574320136,-0.012828170002158322,-0.047952921198544204,-0.004886921905584123,-47.33995907629348,12.861736334405144,-97.82227418883367
1686918336,-0.5324030285,2.5818555854,9.6574320136,-0.012828170002158322,-0.047952921198544204,-0.004886921905584123,-47.33995907629348,12.861736334405144,-97.82227418883367
1686918336,-0.5324030285,2.5818555854,9.6574320136,-0.012370021073509811,-0.047342055960346185,-0.00519235452468313,-47.33995907629348,12.861736334405144,-97.82227418883367
1686918336,-0.5312066172,2.5758735289,9.646664311899999,-0.012370021073509811,-0.047342055960346185,-0.00519235452468313,-47.33995907629348,12.861736334405144,-97.82227418883367
1686918336,-0.5312066172,2.5758735289,9.6502535458,-0.012675453692608817,-0.0478002048889947,-0.00519235452468313,-47.33995907629348,12.861736334405144,-97.82227418883367
1686918336,-0.5407779076,2.5890340532,9.6502535458,-0.012675453692608817,-0.0478002048889947,-0.00519235452468313,-47.33995907629348,12.861736334405144,-97.82227418883367
1686918336,-0.5407779076,2.5890340532,9.6502535458,-0.012828170002158322,-0.047342055960346185,-0.005650503453331642,-47.33995907629348,12.861736334405144,-97.82227418883367
1686918336,-0.5491527867,2.5842484079999997,9.655039191,-0.012828170002158322,-0.047342055960346185,-0.005650503453331642,-47.33995907629348,12.861736334405144,-97.82227418883367
1686918336,-0.5491527867,2.5842484079999997,9.655039191,-0.012828170002158322,-0.04642575810304917,-0.005497787143782138,-47.33995907629348,12.861736334405144,-97.82227418883367
1686918336,-0.5407779076,2.5770699402,9.6562356023,-0.01313360262125733,-0.04642575810304917,-0.005497787143782138,-47.33995907629348,12.861736334405144,-97.82227418883367
1686918336,-0.5407779076,2.5770699402,9.6562356023,-0.01313360262125733,-0.04642575810304917,-0.005497787143782138,-47.33995907629348,12.861736334405144,-97.82227418883367
1686918336,-0.5407779076,2.5686950610999997,9.6598248362,-0.012980886311707827,-0.04627304179349966,-0.004886921905584123,-47.33995907629348,12.861736334405144,-97.82227418883367
1686918336,-0.5407779076,2.5686950610999997,9.6598248362,-0.012980886311707827,-0.04627304179349966,-0.004886921905584123,-47.33995907629348,12.861736334405144,-97.82227418883367
1686918336,-0.5288137946,2.5782663514999995,9.6681997153,-0.012980886311707827,-0.04657847441259867,-0.004581489286485115,-47.33995907629348,12.861736334405144,-97.82227418883367
1686918336,-0.5288137946,2.5782663514999995,9.6681997153,-0.012980886311707827,-0.04657847441259867,-0.004581489286485115,-47.33995907629348,12.861736334405144,-97.82227418883367
1686918336,-0.5300102059,2.5854448193,9.6538427797,-0.012370021073509811,-0.04657847441259867,-0.00519235452468313,-47.33995907629348,12.861736334405144,-97.82227418883367
1686918336,-0.5300102059,2.5854448193,9.6538427797,-0.012370021073509811,-0.04657847441259867,-0.00519235452468313,-47.33995907629348,12.861736334405144,-97.82227418883367
1686918336,-0.5288137946,2.5806591741,9.6586284249,-0.012828170002158322,-0.047189339650796684,-0.004734205596034618,-47.33995907629348,12.861736334405144,-97.82227418883367
1686918336,-0.5288137946,2.5806591741,9.6586284249,-0.012828170002158322,-0.047189339650796684,-0.004734205596034618,-47.33995907629348,12.861736334405144,-97.82227418883367
1686918336,-0.538385085,2.5830519966999996,9.6586284249,-0.012370021073509811,-0.04581489286485115,-0.004276056667386108,-47.33995907629348,12.861736334405144,-97.82227418883367
1686918336,-0.538385085,2.5830519966999996,9.6586284249,-0.012370021073509811,-0.04581489286485115,-0.004276056667386108,-47.33995907629348,12.861736334405144,-97.82227418883367
1686918336,-0.5324030285,2.5866412306,9.6622176588,-0.012217304763960306,-0.047647488579445195,-0.00519235452468313,-47.33995907629348,12.861736334405144,-97.82227418883367
1686918336,-0.5324030285,2.5866412306,9.6622176588,-0.012217304763960306,-0.047647488579445195,-0.00519235452468313,-47.33995907629348,12.861736334405144,-97.82227418883367
1686918336,-0.5395814963,2.5866412306,9.6574320136,-0.01313360262125733,-0.04642575810304917,-0.00519235452468313,-47.33995907629348,12.861736334405144,-97.82227418883367
1686918337,-0.5395814963,2.5866412306,9.6574320136,-0.01313360262125733,-0.04642575810304917,-0.00519235452468313,-47.33995907629348,12.861736334405144,-97.82227418883367
1686918337,-0.5443671415,2.572284295,9.6562356023,-0.013591751549905842,-0.04642575810304917,-0.005497787143782138,-47.33995907629348,12.861736334405144,-97.82227418883367
1686918337,-0.5443671415,2.572284295,9.6562356023,-0.013591751549905842,-0.04642575810304917,-0.005497787143782138,-47.33995907629348,12.861736334405144,-97.82227418883367
1686918337,-0.5443671415,2.5651058272,9.6586284249,-0.013591751549905842,-0.047189339650796684,-0.005039638215133627,-47.33995907629348,12.861736334405144,-97.82227418883367
1686918337,-0.5324030285,2.5651058272,9.6586284249,-0.013591751549905842,-0.047189339650796684,-0.005039638215133627,-47.33995907629348,12.861736334405144,-97.82227418883367
1686918337,-0.5324030285,2.5651058272,9.6586284249,-0.013286318930806833,-0.046883907031697675,-0.004276056667386108,-47.33995907629348,12.861736334405144,-97.82227418883367
1686918337,-0.5288137946,2.5627130046,9.6634140701,-0.013286318930806833,-0.046883907031697675,-0.004276056667386108,-47.33995907629348,12.861736334405144,-97.82227418883367
1686918337,-0.5288137946,2.5627130046,9.6634140701,-0.012675453692608817,-0.04871650274629172,-0.004886921905584123,-47.33995907629348,12.861736334405144,-97.82227418883367
1686918337,-0.5276173833,2.5710878837,9.6622176588,-0.012675453692608817,-0.04871650274629172,-0.004886921905584123,-47.33995907629348,12.861736334405144,-97.82227418883367
1686918337,-0.5276173833,2.5710878837,9.6622176588,-0.012675453692608817,-0.04871650274629172,-0.004886921905584123,-47.33995907629348,12.861736334405144,-97.82227418883367
1686918337,-0.5419743189,2.5902304645,9.6406822554,-0.012217304763960306,-0.04673119072214818,-0.0039706240482871,-47.33995907629348,12.861736334405144,-97.82227418883367
1686918337,-0.5419743189,2.5902304645,9.6406822554,-0.012828170002158322,-0.047342055960346185,-0.004734205596034618,-47.33995907629348,12.861736334405144,-97.82227418883367
1686918337,-0.5479563754,2.5986053435999996,9.646664311899999,-0.012828170002158322,-0.047342055960346185,-0.004734205596034618,-47.33995907629348,12.861736334405144,-97.82227418883367
1686918337,-0.5479563754,2.5986053435999996,9.646664311899999,-0.012828170002158322,-0.047342055960346185,-0.00519235452468313,-47.33995907629348,12.861736334405144,-97.82227418883367
1686918337,-0.5443671415,2.5902304645,9.646664311899999,-0.012675453692608817,-0.047036623341247176,-0.00519235452468313,-47.33995907629348,12.861736334405144,-97.82227418883367
1686918337,-0.5443671415,2.5902304645,9.646664311899999,-0.012675453692608817,-0.047036623341247176,-0.00519235452468313,-47.33995907629348,12.861736334405144,-97.82227418883367
1686918337,-0.5467599640999999,2.5806591741,9.643075077999999,-0.013286318930806833,-0.047189339650796684,-0.004581489286485115,-47.33995907629348,12.861736334405144,-97.82227418883367
1686918337,-0.5467599640999999,2.5806591741,9.643075077999999,-0.013286318930806833,-0.047189339650796684,-0.004581489286485115,-47.33995907629348,12.861736334405144,-97.82227418883367
1686918337,-0.5407779076,2.5782663514999995,9.6394858441,-0.012828170002158322,-0.047189339650796684,-0.004734205596034618,-47.33995907629348,12.861736334405144,-97.82227418883367
1686918337,-0.5407779076,2.5782663514999995,9.6394858441,-0.012828170002158322,-0.047189339650796684,-0.004734205596034618,-47.33995907629348,12.861736334405144,-97.82227418883367
1686918337,-0.538385085,2.5758735289,9.6454679006,-0.01313360262125733,-0.047647488579445195,-0.004886921905584123,-47.33995907629348,12.861736334405144,-97.82227418883367
1686918337,-0.538385085,2.5758735289,9.6454679006,-0.01313360262125733,-0.047647488579445195,-0.004886921905584123,-47.33995907629348,12.861736334405144,-97.82227418883367
1686918337,-0.5276173833,2.5770699402,9.643075077999999,-0.01313360262125733,-0.047036623341247176,-0.005039638215133627,-47.33995907629348,12.861736334405144,-97.82227418883367
1686918337,-0.5276173833,2.5770699402,9.643075077999999,-0.01313360262125733,-0.047036623341247176,-0.005039638215133627,-47.33995907629348,12.861736334405144,-97.82227418883367
1686918337,-0.5324030285,2.5806591741,9.646664311899999,-0.01313360262125733,-0.046883907031697675,-0.005039638215133627,-47.33995907629348,12.861736334405144,-97.82227418883367
1686918337,-0.5324030285,2.5806591741,9.646664311899999,-0.01313360262125733,-0.046883907031697675,-0.005039638215133627,-47.33995907629348,12.861736334405144,-97.82227418883367
1686918337,-0.5455635528,2.5806591741,9.6406822554,-0.012370021073509811,-0.04612032548395016,-0.004886921905584123,-47.33995907629348,12.861736334405144,-97.82227418883367
1686918337,-0.5455635528,2.5806591741,9.6406822554,-0.012370021073509811,-0.04612032548395016,-0.004886921905584123,-47.33995907629348,12.861736334405144,-97.82227418883367
1686918337,-0.5395814963,2.5830519966999996,9.6502535458,-0.012064588454410803,-0.04596760917440065,-0.005039638215133627,-47.33995907629348,12.861736334405144,-97.82227418883367
1686918337,-0.5395814963,2.5830519966999996,9.6502535458,-0.012064588454410803,-0.04596760917440065,-0.005039638215133627,-47.33995907629348,12.861736334405144,-97.82227418883367
1686918337,-0.5467599640999999,2.5926232871,9.6382894328,-0.01313360262125733,-0.046883907031697675,-0.004886921905584123,-47.33995907629348,12.861736334405144,-97.82227418883367
1686918337,-0.5467599640999999,2.5926232871,9.6382894328,-0.01313360262125733,-0.046883907031697675,-0.004886921905584123,-47.33995907629348,12.861736334405144,-97.82227418883367
1686918337,-0.5443671415,2.572284295,9.6490571345,-0.012980886311707827,-0.047189339650796684,-0.005345070834232635,-47.33995907629348,12.861736334405144,-97.82227418883367
1686918337,-0.5443671415,2.572284295,9.6490571345,-0.012980886311707827,-0.047189339650796684,-0.005345070834232635,-47.33995907629348,12.861736334405144,-97.82227418883367
1686918337,-0.5443671415,2.572284295,9.6490571345,-0.01313360262125733,-0.04673119072214818,-0.004428772976935611,-47.33995907629348,12.861736334405144,-97.82227418883367
1686918337,-0.5359922624,2.5782663514999995,9.6478607232,-0.01313360262125733,-0.04673119072214818,-0.004428772976935611,-47.33995907629348,12.861736334405144,-97.82227418883367
