time,seconds_elapsed,z,y,x
1672829357090329600,9.18632958984375,1.007110595703125,0.0303955078125,-0.0347137451171875
1672829357100377900,9.1963779296875,1.0124664306640625,0.031524658203125,-0.0219268798828125
1672829357110425600,9.206425537109375,1.004486083984375,0.0338134765625,-0.015167236328125
1672829357120475000,9.216474853515624,1.0115814208984375,0.0482940673828125,-0.021759033203125
1672829357130522600,9.226522705078125,1.0103302001953125,0.063720703125,-0.0321807861328125
1672829357140570600,9.236570556640626,1.0026702880859375,0.0658416748046875,-0.0370025634765625
1672829357150619600,9.24661962890625,1.010711669921875,0.042510986328125,-0.0336456298828125
1672829357160667600,9.256667724609375,1.0086212158203125,0.019134521484375,-0.007904052734375
1672829357170716000,9.2667158203125,1.013641357421875,0.0222625732421875,0.0105438232421875
1672829357180763600,9.276763671875,1.012603759765625,0.01824951171875,0.001373291015625
1672829357190813000,9.28681298828125,1.0099639892578125,0.0103759765625,0.0069122314453125
1672829357200860700,9.296860595703125,1.0069732666015625,0.009521484375,0.0042724609375
1672829357210908700,9.30690869140625,1.008392333984375,0.011932373046875,0.002471923828125
1672829357220957700,9.316957763671875,1.008392333984375,0.01812744140625,0.0044097900390625
1672829357231005700,9.327005615234375,1.0105743408203125,0.02337646484375,0.001220703125
1672829357241053700,9.3370537109375,1.009613037109375,0.0243682861328125,-0.00201416015625
1672829357251101700,9.347101806640625,1.0090789794921875,0.020843505859375,0.00213623046875
1672829357261150700,9.357150634765626,1.0029296875,0.0107574462890625,0.0040283203125
1672829357271198700,9.36719873046875,1.0121917724609375,0.0149078369140625,0.005218505859375
1672829357281246700,9.377246826171875,1.0117340087890625,0.0101165771484375,0.007843017578125
1672829357291294700,9.387294677734374,1.0081024169921875,0.01690673828125,0.005706787109375
1672829357301343700,9.39734375,1.0155029296875,0.017974853515625,0.0028839111328125
1672829357311391700,9.407391845703126,1.0093231201171875,0.0225830078125,-0.002471923828125
1672829357321439700,9.417439697265625,1.0085296630859375,0.02142333984375,0.00238037109375
1672829357331488500,9.427488525390626,1.0119781494140625,0.01953125,-0.0002899169921875
1672829357341536800,9.437536865234375,1.0141448974609375,0.0110015869140625,0.0135650634765625
1672829357351584800,9.447584716796875,0.9996490478515625,0.0124359130859375,-0.003570556640625
1672829357361632800,9.4576328125,1.0136871337890625,0.013214111328125,0.0081329345703125
1672829357371681800,9.467681884765625,1.0060882568359375,0.0169677734375,0.0005950927734375
1672829357381729800,9.477729736328126,1.0112457275390625,0.021575927734375,0.0029449462890625
1672829357391777800,9.48777783203125,1.010772705078125,0.0225830078125,0.001678466796875
1672829357401826600,9.49782666015625,1.0103302001953125,0.0196685791015625,0.002471923828125
1672829357411874800,9.507874755859374,1.0087738037109375,0.0154876708984375,0.0023193359375
1672829357421922600,9.517922607421875,1.0106658935546875,0.011474609375,0.0041961669921875
1672829357431970800,9.527970703125,1.0103302001953125,0.0110626220703125,0.00531005859375
1672829357442019600,9.53801953125,1.0096282958984375,0.0146026611328125,0.003753662109375
1672829357452067600,9.548067626953125,1.0105743408203125,0.01959228515625,0.001708984375
1672829357462115800,9.55811572265625,1.009552001953125,0.0230560302734375,0.001068115234375
1672829357472164600,9.56816455078125,1.008636474609375,0.0235748291015625,0.00115966796875
1672829357482212900,9.578212890625,1.0092926025390625,0.020263671875,0.0027008056640625
1672829357492260600,9.588260498046875,1.00848388671875,0.016082763671875,0.0032958984375
1672829357502308600,9.59830859375,1.009552001953125,0.01153564453125,0.00421142578125
1672829357512357600,9.608357666015625,1.010467529296875,0.0109100341796875,0.00494384765625
1672829357522405600,9.618405517578125,1.0102996826171875,0.014678955078125,0.0041961669921875
1672829357532454000,9.628453857421874,1.0078887939453125,0.01934814453125,0.001678466796875
1672829357542502700,9.638502685546875,1.0095367431640625,0.0221405029296875,0.0009765625
1672829357552551000,9.648551025390624,1.0092620849609375,0.02117919921875,0.0019989013671875
1672829357562598700,9.6585986328125,1.0092620849609375,0.0183258056640625,0.002838134765625
1672829357572646700,9.668646728515625,1.0093841552734375,0.01470947265625,0.004058837890625
1672829357582695700,9.67869580078125,1.0087738037109375,0.01312255859375,0.0042877197265625
1672829357592743700,9.68874365234375,1.0102691650390625,0.0145111083984375,0.003875732421875
1672829357602791700,9.698791748046874,1.0097198486328125,0.017333984375,0.00323486328125
1672829357612840700,9.7088408203125,1.0096435546875,0.020599365234375,0.0026092529296875
1672829357622888700,9.718888671875,1.0105743408203125,0.0215911865234375,0.0022125244140625
1672829357632936700,9.728936767578125,1.0094451904296875,0.020660400390625,0.0023193359375
1672829357642984700,9.738984619140625,1.0097198486328125,0.0163726806640625,0.003631591796875
1672829357653033700,9.74903369140625,1.0097808837890625,0.012969970703125,0.0040283203125
1672829357663081700,9.759081787109375,1.0083465576171875,0.0130767822265625,0.003753662109375
1672829357673129700,9.769129638671876,1.0105133056640625,0.0146942138671875,0.003753662109375
1672829357683178800,9.7791787109375,1.009429931640625,0.018310546875,0.0028228759765625
1672829357693226800,9.789226806640626,1.010101318359375,0.0209503173828125,0.0022125244140625
1672829357703274800,9.799274658203124,1.0079803466796875,0.0210418701171875,0.0018768310546875
1672829357713322800,9.80932275390625,1.0098114013671875,0.017974853515625,0.0019989013671875
1672829357723371800,9.819371826171874,1.01043701171875,0.01519775390625,0.003570556640625
1672829357733419800,9.829419677734375,1.008880615234375,0.0140228271484375,0.00408935546875
1672829357743467500,9.839467529296876,1.0108642578125,0.013092041015625,0.004608154296875
1672829357753516800,9.849516845703125,1.0097198486328125,0.0156402587890625,0.0023651123046875
1672829357763564500,9.859564453125,1.0101470947265625,0.01971435546875,0.0016937255859375
1672829357773612800,9.86961279296875,1.0088348388671875,0.0211029052734375,0.002410888671875
1672829357783660500,9.87966064453125,1.0092926025390625,0.0210113525390625,0.0029449462890625
1672829357793709800,9.889709716796874,1.0098724365234375,0.018096923828125,0.0032196044921875
1672829357803757600,9.899757568359375,1.00836181640625,0.01568603515625,0.0026397705078125
1672829357813805600,9.9098056640625,1.0106353759765625,0.013458251953125,0.003936767578125
1672829357823854600,9.9198544921875,1.009735107421875,0.0145721435546875,0.0034027099609375
1672829357833902600,9.929902587890625,1.0091705322265625,0.01727294921875,0.0035552978515625
1672829357843950800,9.939950927734374,1.0089263916015625,0.0187530517578125,0.0028839111328125
1672829357853998600,9.94999853515625,1.0086822509765625,0.020355224609375,0.00244140625
1672829357864047600,9.960047607421876,1.0096893310546875,0.0195465087890625,0.0020599365234375
1672829357874095600,9.970095703125,1.0094146728515625,0.017669677734375,0.002716064453125
1672829357884143600,9.9801435546875,1.0088958740234375,0.0140533447265625,0.0045166015625
1672829357894192600,9.990192626953124,1.0092315673828125,0.014251708984375,0.0038604736328125
1672829357904240600,10.00024072265625,1.010833740234375,0.0161590576171875,0.0036468505859375
1672829357914288600,10.01028857421875,1.010650634765625,0.0193634033203125,0.003143310546875
1672829357924336600,10.020336669921875,1.0092620849609375,0.019317626953125,0.002197265625
1672829357934385700,10.0303857421875,1.0096282958984375,0.018829345703125,0.002532958984375
1672829357944433700,10.04043359375,1.00958251953125,0.017364501953125,0.0025787353515625
1672829357954481700,10.050481689453125,1.0100555419921875,0.015472412109375,0.003082275390625
1672829357964529700,10.06052978515625,1.0102691650390625,0.0135345458984375,0.0045318603515625
1672829357974578700,10.07057861328125,1.0085906982421875,0.0154571533203125,0.001922607421875
1672829357984626400,10.08062646484375,1.009918212890625,0.0179595947265625,0.0021514892578125
1672829357994674700,10.0906748046875,1.009674072265625,0.0191192626953125,0.0013885498046875
1672829358004723500,10.100723388671875,1.0095672607421875,0.0202789306640625,0.0017852783203125
1672829358014771700,10.110771728515624,1.009033203125,0.0196685791015625,0.00299072265625
1672829358024819700,10.12081982421875,1.008819580078125,0.017547607421875,0.0030364990234375
1672829358034867500,10.130867431640626,1.00994873046875,0.0151214599609375,0.003814697265625
1672829358044916700,10.140916748046875,1.0095672607421875,0.0140533447265625,0.00299072265625
1672829358054964500,10.150964599609376,1.009429931640625,0.0155792236328125,0.0041961669921875
1672829358065012700,10.1610126953125,1.0099945068359375,0.017059326171875,0.0035247802734375
1672829358075061500,10.1710615234375,1.0083160400390625,0.0186920166015625,0.001983642578125
1672829358085109800,10.18110986328125,1.0099945068359375,0.0191650390625,0.002166748046875
1672829358095157500,10.191157470703125,1.0095977783203125,0.01849365234375,0.002410888671875
1672829358105205500,10.20120556640625,1.0093231201171875,0.0167388916015625,0.0035400390625
1672829358115254500,10.211254638671875,1.0110931396484375,0.0152435302734375,0.00421142578125
1672829358125302500,10.221302490234375,1.00860595703125,0.0154571533203125,0.0028533935546875
1672829358135350800,10.231350830078124,1.009552001953125,0.0167999267578125,0.003387451171875
1672829358145399600,10.241399658203125,1.010040283203125,0.01861572265625,0.0030059814453125
1672829358155447800,10.25144775390625,1.00830078125,0.0205078125,0.00262451171875
1672829358165495600,10.26149560546875,1.005615234375,0.0200653076171875,0.003204345703125
1672829358175543600,10.27154345703125,1.020111083984375,0.0153350830078125,0.0041656494140625
1672829358185592600,10.281592529296875,1.0027008056640625,0.0148162841796875,0.00244140625
1672829358195640600,10.291640625,1.0164794921875,0.01458740234375,0.0041656494140625
1672829358205688800,10.301688720703124,1.0075225830078125,0.016326904296875,0.0038299560546875
1672829358215737600,10.311737548828125,1.000946044921875,0.0180511474609375,-0.0001983642578125
1672829358225785900,10.321785888671876,1.0040740966796875,0.0115509033203125,0.0231170654296875
1672829358235833600,10.33183349609375,1.01995849609375,0.02752685546875,-0.0013427734375
1672829358245881600,10.341881591796875,1.0149078369140625,0.023406982421875,-0.017242431640625
1672829358255930600,10.3519306640625,1.0037384033203125,0.0130767822265625,0.010498046875
1672829358265978600,10.361978515625,1.0147857666015625,0.0144500732421875,-0.00469970703125
1672829358276026600,10.372026611328126,1.0069580078125,0.0157318115234375,0.0049591064453125
1672829358286075600,10.38207568359375,1.0054779052734375,0.01873779296875,-0.006591796875
1672829358296123600,10.39212353515625,1.009674072265625,0.0221405029296875,0.00555419921875
1672829358306171600,10.402171630859375,1.00567626953125,0.021575927734375,0.00701904296875
1672829358316219600,10.4122197265625,1.01727294921875,0.0184173583984375,0.0078125
1672829358326268700,10.4222685546875,0.99951171875,0.0164031982421875,-0.001251220703125
1672829358336316700,10.432316650390625,1.017822265625,0.014434814453125,0.0054931640625
1672829358346364700,10.44236474609375,1.01214599609375,0.0163726806640625,0.0060577392578125
1672829358356413700,10.45241357421875,1.01104736328125,0.0206451416015625,0.0022125244140625
1672829358366461700,10.462461669921876,1.015380859375,0.0205230712890625,0.005523681640625
1672829358376509700,10.472509765625,0.9946441650390625,0.020233154296875,0.0025482177734375
1672829358386557700,10.4825576171875,0.9637908935546875,0.002410888671875,0.000885009765625
1672829358396606700,10.492606689453124,1.03070068359375,0.001068115234375,0.0223236083984375
1672829358406654700,10.50265478515625,0.973907470703125,-0.04339599609375,-0.00506591796875
1672829358416702700,10.51270263671875,1.0354766845703125,-0.0609283447265625,0.031341552734375
1672829358426751500,10.52275146484375,1.0283660888671875,-0.101806640625,0.1092071533203125
1672829358436799500,10.532799560546875,1.01739501953125,0.1909332275390625,-0.024566650390625
1672829358446847700,10.54284765625,1.0076751708984375,0.1409759521484375,-0.1291961669921875
1672829358456895500,10.5528955078125,1.0101165771484375,0.00042724609375,0.0145416259765625
1672829358466944800,10.56294482421875,0.9976348876953125,0.0024566650390625,0.0119476318359375
1672829358476992500,10.572992431640625,1.02392578125,0.03399658203125,-0.0074462890625
1672829358487040800,10.583040771484375,1.0154266357421875,0.02044677734375,-0.00341796875
1672829358497089500,10.593089599609375,1.0152130126953125,0.0166778564453125,0.0001220703125
1672829358507137500,10.603137451171875,1.0089111328125,0.016448974609375,0.0015411376953125
1672829358517185800,10.613185791015624,1.01397705078125,0.0198974609375,0.00115966796875
1672829358527233500,10.623233642578125,1.008056640625,0.0209197998046875,0.0010223388671875
1672829358537282800,10.63328271484375,1.011444091796875,0.017791748046875,0.0006103515625
1672829358547330600,10.64333056640625,1.0098114013671875,0.0147247314453125,0.0025634765625
1672829358557378600,10.653378662109375,1.00836181640625,0.0164337158203125,0.0022430419921875
1672829358567427600,10.663427490234374,1.009979248046875,0.01312255859375,0.0020599365234375
1672829358577475600,10.6734755859375,1.007781982421875,0.0144195556640625,0.0027008056640625
1672829358587523600,10.683523681640626,1.0096435546875,0.015472412109375,0.004150390625
1672829358597571600,10.693571533203125,1.0050811767578125,0.0118255615234375,0.003570556640625
1672829358607620600,10.70362060546875,1.0127410888671875,0.015167236328125,0.0021514892578125
1672829358617668600,10.713668701171875,1.00860595703125,0.01995849609375,-0.000518798828125
1672829358627716600,10.723716552734375,1.011688232421875,0.0128631591796875,0.002288818359375
1672829358637765600,10.733765625,1.007293701171875,0.014068603515625,-0.0000152587890625
1672829358647813600,10.743813720703125,1.009552001953125,0.013885498046875,0.0009765625
1672829358657861600,10.753861572265626,1.0137786865234375,0.015960693359375,-0.0020599365234375
1672829358667909600,10.76390966796875,1.003204345703125,0.016387939453125,-0.0004425048828125
1672829358677958700,10.773958740234375,1.012115478515625,0.025604248046875,0.0018768310546875
1672829358688006700,10.784006591796874,1.016998291015625,0.0235137939453125,0.0067291259765625
1672829358698054700,10.7940546875,1.004180908203125,0.012939453125,0.004425048828125
1672829358708103700,10.804103759765624,1.0061187744140625,0.0121612548828125,0.0033416748046875
1672829358718151700,10.814151611328125,1.0087890625,0.0029296875,0.0079193115234375
1672829358728199700,10.82419970703125,1.000640869140625,0.00128173828125,0.0053863525390625
1672829358738247700,10.83424755859375,1.015960693359375,0.0101776123046875,0.0045623779296875
1672829358748296000,10.8442958984375,0.99462890625,0.0182952880859375,-0.0014801025390625
1672829358758344200,10.85434423828125,1.01776123046875,0.0224761962890625,0.002105712890625
1672829358768392200,10.86439208984375,1.0247344970703125,0.0202789306640625,0.0041351318359375
1672829358778440200,10.874440185546876,1.0054168701171875,0.020294189453125,0.0023345947265625
1672829358788489200,10.8844892578125,1.0063629150390625,0.004852294921875,0.0048370361328125
1672829358798537200,10.894537109375,1.0004730224609375,0.0008697509765625,0.0090484619140625
1672829358808585200,10.904585205078124,1.00970458984375,0.0257720947265625,0.0100555419921875
1672829358818634000,10.914634033203125,1.019012451171875,-0.0054473876953125,0.0052490234375
1672829358828682200,10.92468212890625,1.0138397216796875,0.0207977294921875,0.003509521484375
1672829358838730000,10.93472998046875,1.0098876953125,0.021728515625,-0.001129150390625
1672829358848779300,10.944779296875,1.0131683349609375,0.0209197998046875,0.0009307861328125
1672829358858827000,10.954826904296874,1.014923095703125,0.012847900390625,0.0041961669921875
1672829358868875000,10.964875,1.007049560546875,0.00518798828125,0.005157470703125
1672829358878923300,10.97492333984375,1.0111846923828125,0.001007080078125,0.0128021240234375
1672829358888972000,10.984971923828125,1.0078582763671875,0.0052490234375,0.025146484375
1672829358899020300,10.995020263671876,1.0083770751953125,0.021820068359375,0.0149078369140625
1672829358909068000,11.005068115234375,1.012359619140625,0.01873779296875,0.007781982421875
1672829358919116300,11.0151162109375,1.0084381103515625,0.034423828125,0.001739501953125
1672829358929165000,11.0251650390625,1.0037841796875,-0.0028228759765625,0.0050201416015625
1672829358939213000,11.035213134765625,1.01220703125,-0.007904052734375,0.004669189453125
1672829358949261300,11.04526123046875,1.018341064453125,0.0011749267578125,0.008514404296875
1672829358959310000,11.05531005859375,1.0097808837890625,-0.0055084228515625,0.0016021728515625
1672829358969358000,11.065358154296876,1.011810302734375,0.001922607421875,-0.01556396484375
1672829358979406000,11.075406005859374,1.0092926025390625,0.0108184814453125,-0.0220184326171875
1672829358989455000,11.085455078125,1.0089111328125,0.0172119140625,0.0006256103515625
1672829358999503000,11.095503173828124,1.0084686279296875,0.013671875,0.0048065185546875
1672829359009551000,11.105551025390625,1.0081787109375,0.0087432861328125,0.0005950927734375
1672829359019599000,11.11559912109375,1.010650634765625,0.000030517578125,0.0050811767578125
1672829359029648100,11.125648193359375,1.0107574462890625,-0.0034637451171875,0.0063934326171875
1672829359039696100,11.135696044921875,1.0097503662109375,-0.003082275390625,0.00872802734375
1672829359049744100,11.145744140625,1.007354736328125,0.0037384033203125,0.006011962890625
1672829359059792100,11.155792236328125,1.00958251953125,0.0117340087890625,0.0014190673828125
1672829359069841200,11.165841064453126,1.01727294921875,0.01470947265625,0.0023193359375
1672829359079889200,11.17588916015625,1.01287841796875,0.0109710693359375,0.003326416015625
1672829359089937200,11.185937255859375,1.0120849609375,0.003692626953125,0.0062103271484375
1672829359099986200,11.195986083984375,1.01397705078125,0.001190185546875,0.008392333984375
1672829359110034200,11.2060341796875,1.017303466796875,-0.00067138671875,0.0066070556640625
1672829359120082200,11.216082275390624,1.0141448974609375,0.0006103515625,0.0059356689453125
1672829359130130200,11.226130126953125,1.0149078369140625,0.00286865234375,0.009429931640625
1672829359140179200,11.23617919921875,1.0101165771484375,0.0023956298828125,0.0095672607421875
1672829359150227000,11.24622705078125,1.006927490234375,0.0041046142578125,0.0203704833984375
1672829359160275200,11.256275146484375,1.0036773681640625,-0.002288818359375,0.0489654541015625
1672829359170324000,11.266323974609374,1.01177978515625,-0.0102081298828125,0.0325775146484375
1672829359180372200,11.276372314453125,1.02703857421875,0.0009002685546875,0.01708984375
1672829359190420200,11.286420166015626,1.033111572265625,-0.0019378662109375,-0.0112762451171875
1672829359200468000,11.296468017578125,1.019989013671875,-0.0022430419921875,-0.0290374755859375
1672829359210517200,11.306517333984376,1.008880615234375,-0.0034332275390625,-0.027587890625
1672829359220565000,11.31656494140625,1.011444091796875,-0.009033203125,-0.0064544677734375
1672829359230613200,11.32661328125,1.0138702392578125,-0.0094451904296875,0.0044097900390625
1672829359240662000,11.336662109375,1.0093231201171875,-0.015533447265625,0.0031585693359375
1672829359250710300,11.346710205078125,1.0071258544921875,-0.020172119140625,0.0031280517578125
1672829359260758300,11.35675830078125,0.9963836669921875,-0.0244293212890625,0.0052032470703125
1672829359270806000,11.366805908203125,0.9960479736328125,-0.02911376953125,0.0101776123046875
1672829359280855300,11.376855224609375,0.9968109130859375,-0.02777099609375,0.005035400390625
1672829359290903000,11.386903076171874,1.00518798828125,-0.019195556640625,-0.002227783203125
1672829359300951300,11.396951416015625,1.0169677734375,-0.0184478759765625,0.00830078125
1672829359311000000,11.407,1.02886962890625,-0.014923095703125,0.01171875
1672829359321048300,11.41704833984375,1.0323638916015625,-0.015350341796875,0.001861572265625
1672829359331096000,11.427095947265625,1.0561676025390625,-0.015655517578125,0.00958251953125
1672829359341144000,11.43714404296875,1.063507080078125,-0.01898193359375,0.0133819580078125
1672829359351193000,11.447193115234375,1.0554046630859375,-0.0224456787109375,0.0140838623046875
1672829359361241000,11.457240966796874,1.060394287109375,-0.025421142578125,0.0111846923828125
1672829359371289300,11.467289306640625,1.0489501953125,-0.0292205810546875,0.0028839111328125
1672829359381337000,11.477337158203126,1.029052734375,-0.0508880615234375,0.0138092041015625
1672829359391386000,11.48738623046875,1.025787353515625,-0.102996826171875,0.0464324951171875
1672829359401434000,11.49743408203125,1.024017333984375,-0.0853729248046875,0.0292205810546875
1672829359411482000,11.507482177734374,1.0438995361328125,-0.0229949951171875,-0.0030364990234375
1672829359421531100,11.51753125,1.0412139892578125,-0.0506744384765625,0.006927490234375
1672829359431579100,11.5275791015625,1.027618408203125,-0.134735107421875,0.026458740234375
1672829359441627100,11.537627197265625,1.043548583984375,-0.1130523681640625,0.0236358642578125
1672829359451675100,11.547675048828125,1.0581817626953125,-0.0701751708984375,0.0133514404296875
1672829359461724200,11.55772412109375,1.0465087890625,-0.13665771484375,0.0274200439453125
1672829359471772200,11.567772216796875,1.0414581298828125,-0.2126007080078125,0.036285400390625
1672829359481820200,11.577820068359374,1.03961181640625,-0.1552581787109375,0.0123443603515625
1672829359491869200,11.587869140625,1.03155517578125,-0.1456451416015625,-0.0106353759765625
1672829359501917200,11.597917236328126,1.0097198486328125,-0.1825408935546875,-0.0007781982421875
1672829359511965000,11.60796484375,0.9907684326171875,-0.20654296875,-0.003204345703125
1672829359522013200,11.61801318359375,0.972625732421875,-0.2309112548828125,-0.01025390625
1672829359532062000,11.62806201171875,0.97161865234375,-0.25628662109375,-0.0148773193359375
1672829359542110200,11.638110107421875,0.9691162109375,-0.249298095703125,-0.0121002197265625
1672829359552158200,11.648158203125,0.979644775390625,-0.211029052734375,-0.0013427734375
1672829359562207200,11.658207275390625,0.9794158935546875,-0.2271270751953125,-0.0148162841796875
1672829359572255200,11.668255126953126,0.981292724609375,-0.2541961669921875,-0.0199737548828125
1672829359582303000,11.678302978515624,0.979522705078125,-0.2707672119140625,-0.0375518798828125
1672829359592351200,11.688351318359375,0.9733734130859375,-0.2906036376953125,-0.0524749755859375
1672829359602400000,11.69839990234375,0.9705657958984375,-0.3041229248046875,-0.0482025146484375
1672829359612448300,11.7084482421875,0.936187744140625,-0.328887939453125,-0.0443878173828125
1672829359622496300,11.718496337890626,0.915740966796875,-0.36175537109375,-0.023193359375
1672829359632544000,11.7285439453125,0.9055023193359375,-0.379974365234375,-0.006866455078125
1672829359642593000,11.738593017578125,0.89947509765625,-0.37689208984375,0.002960205078125
1672829359652641000,11.74864111328125,0.9127349853515625,-0.385711669921875,0.0210418701171875
1672829359662689300,11.758689208984375,0.8975982666015625,-0.411712646484375,0.0234527587890625
1672829359672738000,11.768738037109374,0.8932342529296875,-0.454132080078125,0.0368194580078125
1672829359682786300,11.778786376953125,0.922607421875,-0.4475250244140625,0.0117950439453125
1672829359692834000,11.788833984375,0.9127349853515625,-0.4547882080078125,-0.0015869140625
1672829359702882000,11.798882080078124,0.88592529296875,-0.4732818603515625,-0.012237548828125
1672829359712931000,11.80893115234375,0.868408203125,-0.48858642578125,-0.02020263671875
1672829359722979000,11.81897900390625,0.8574676513671875,-0.485015869140625,-0.0231475830078125
1672829359733027300,11.82902734375,0.83221435546875,-0.508453369140625,-0.01788330078125
1672829359743076400,11.839076416015626,0.818389892578125,-0.531890869140625,-0.0226593017578125
1672829359753124400,11.849124267578125,0.82867431640625,-0.5673370361328125,-0.021636962890625
1672829359763172400,11.85917236328125,0.838653564453125,-0.5484466552734375,0.003173828125
1672829359773220400,11.869220458984374,0.8204498291015625,-0.5459442138671875,0.0496978759765625
1672829359783269400,11.879269287109375,0.7912445068359375,-0.615631103515625,0.064910888671875
1672829359793317400,11.8893173828125,0.8146209716796875,-0.6165771484375,0.03643798828125
1672829359803365000,11.899365234375,0.8562469482421875,-0.579864501953125,0.00555419921875
1672829359813414400,11.909414306640626,0.86328125,-0.5321807861328125,-0.007568359375
1672829359823462100,11.919462158203125,0.8032684326171875,-0.5932159423828125,0.0031585693359375
1672829359833510400,11.929510498046875,0.752166748046875,-0.6346435546875,0.0038299560546875
1672829359843558400,11.939558349609374,0.725799560546875,-0.650909423828125,0.02197265625
1672829359853607400,11.949607421875,0.7223358154296875,-0.6537017822265625,0.0147552490234375
1672829359863653400,11.9596533203125,0.7234344482421875,-0.6575775146484375,0.001312255859375
1672829359873701400,11.969701416015624,0.734344482421875,-0.67864990234375,-0.00164794921875
1672829359883749000,11.9797490234375,0.7508544921875,-0.697418212890625,-0.00775146484375
1672829359893798400,11.98979833984375,0.7391204833984375,-0.6944427490234375,-0.0073089599609375
1672829359903846100,11.99984619140625,0.7100982666015625,-0.7016143798828125,0.0029754638671875
1672829359913894400,12.009894287109375,0.6947021484375,-0.70745849609375,0.021270751953125
1672829359923942400,12.0199423828125,0.667449951171875,-0.7583770751953125,0.0174713134765625
1672829359933991400,12.029991455078125,0.697967529296875,-0.7261962890625,0.00311279296875
1672829359944039400,12.040039306640624,0.70013427734375,-0.6998291015625,0.00946044921875
1672829359954087200,12.050087158203125,0.638824462890625,-0.7607269287109375,0.011749267578125
1672829359964136400,12.060136474609376,0.6445465087890625,-0.7435760498046875,0.0072174072265625
1672829359974184200,12.07018408203125,0.619598388671875,-0.7526397705078125,0.00628662109375
1672829359984232400,12.080232421875,0.605133056640625,-0.7920989990234375,0.001678466796875
1672829359994280400,12.090280517578124,0.6035003662109375,-0.7799072265625,-0.012603759765625
1672829360004329500,12.10032958984375,0.614471435546875,-0.781463623046875,-0.0141143798828125
1672829360014377500,12.11037744140625,0.60260009765625,-0.79571533203125,-0.0029296875
1672829360024425200,12.12042529296875,0.577850341796875,-0.80487060546875,0.017730712890625
1672829360034474500,12.130474609375,0.5846405029296875,-0.7901153564453125,0.0278472900390625
1672829360044522200,12.140522216796874,0.5594635009765625,-0.805511474609375,0.0361480712890625
1672829360054570500,12.150570556640625,0.5344085693359375,-0.82769775390625,0.0240936279296875
1672829360064618200,12.1606181640625,0.55767822265625,-0.8061676025390625,0.0064544677734375
1672829360074667500,12.17066748046875,0.5101165771484375,-0.8560791015625,0.01043701171875
1672829360084715300,12.18071533203125,0.499755859375,-0.8607940673828125,0.00726318359375
1672829360094763300,12.19076318359375,0.501953125,-0.85369873046875,0.0237579345703125
1672829360104812300,12.200812255859375,0.5050811767578125,-0.8565216064453125,0.0259552001953125
1672829360114860300,12.2108603515625,0.5062408447265625,-0.8519744873046875,0.0269622802734375
1672829360124908500,12.220908447265625,0.4993438720703125,-0.8600616455078125,0.0298309326171875
1672829360134956300,12.230956298828126,0.462005615234375,-0.89093017578125,-0.0072174072265625
1672829360145005600,12.241005615234375,0.46295166015625,-0.911285400390625,-0.0032501220703125
1672829360155053300,12.25105322265625,0.418212890625,-0.904571533203125,-0.00482177734375
1672829360165101300,12.261101318359374,0.399566650390625,-0.9051361083984375,0.0217742919921875
1672829360175149600,12.271149658203125,0.406005859375,-0.9051666259765625,0.016998291015625
1672829360185198300,12.2811982421875,0.405914306640625,-0.9098968505859375,0.01837158203125
1672829360195246300,12.291246337890625,0.3697967529296875,-0.925537109375,0.033233642578125
1672829360205294300,12.30129443359375,0.34661865234375,-0.9237823486328125,0.007171630859375
1672829360215343400,12.31134326171875,0.3572845458984375,-0.9236907958984375,0.007720947265625
1672829360225391400,12.321391357421875,0.357177734375,-0.9300384521484375,0.0055999755859375
1672829360235439400,12.331439453125,0.3862152099609375,-0.921905517578125,-0.0047760009765625
1672829360245487400,12.3414873046875,0.3762054443359375,-0.9090576171875,-0.0194854736328125
1672829360255536400,12.351536376953124,0.389495849609375,-0.910858154296875,-0.00048828125
1672829360265584400,12.36158447265625,0.273529052734375,-0.961639404296875,0.0045928955078125
1672829360275632400,12.37163232421875,0.27362060546875,-0.9727935791015625,0.023590087890625
1672829360285681200,12.38168115234375,0.258148193359375,-0.9572601318359375,0.0104522705078125
1672829360295729400,12.3917294921875,0.244964599609375,-0.967376708984375,0.008453369140625
1672829360305777400,12.40177734375,0.2446441650390625,-0.9717559814453125,0.02734375
1672829360315825400,12.411825439453125,0.24188232421875,-0.9774627685546875,0.0196685791015625
1672829360325874400,12.42187451171875,0.210418701171875,-0.9566497802734375,-0.0038604736328125
1672829360335922200,12.431922119140625,0.2364654541015625,-0.94268798828125,-0.03656005859375
1672829360345970400,12.441970458984375,0.230010986328125,-0.9561767578125,-0.013702392578125
1672829360356019200,12.452019287109374,0.1464385986328125,-0.9901885986328125,0.0037994384765625
1672829360366067500,12.4620673828125,0.1517181396484375,-0.992767333984375,-0.0001220703125
1672829360376115200,12.472115234375,0.160186767578125,-0.977996826171875,-0.001129150390625
1672829360386163200,12.4821630859375,0.1640472412109375,-0.978424072265625,-0.0051116943359375
1672829360396212200,12.492212158203126,0.15924072265625,-0.9858551025390625,0.0087432861328125
1672829360406260200,12.50226025390625,0.161956787109375,-0.990142822265625,0.017852783203125
1672829360416308500,12.51230859375,0.1699981689453125,-0.9821929931640625,0.012054443359375
1672829360426356200,12.522356201171876,0.1662445068359375,-0.9813232421875,0.01153564453125
1672829360436405500,12.532405517578125,0.1659698486328125,-0.9798583984375,0.006195068359375
1672829360446453200,12.542453369140626,0.0828399658203125,-0.9948883056640625,0.01995849609375
1672829360456501200,12.552501220703125,0.0600738525390625,-1.0099334716796875,0.0199737548828125
1672829360466550300,12.56255029296875,0.0250396728515625,-1.0058746337890625,-0.0031585693359375
1672829360476598300,12.572598388671874,0.0376434326171875,-1.000091552734375,0.0042877197265625
1672829360486646500,12.582646484375,0.0590362548828125,-1.0037078857421875,0.0055389404296875
1672829360496694300,12.5926943359375,0.083526611328125,-0.9955902099609375,0.008941650390625
1672829360506743600,12.60274365234375,0.092681884765625,-0.990966796875,0.0023651123046875
1672829360516791300,12.612791259765626,0.1011962890625,-0.99456787109375,0.0096893310546875
1672829360526839300,12.62283935546875,0.085784912109375,-0.9949798583984375,0.0146942138671875
1672829360536889300,12.632889404296876,0.0562744140625,-1.00048828125,0.0146331787109375
1672829360546937300,12.642937255859374,0.0578155517578125,-1.0002593994140625,0.0274658203125
1672829360556985300,12.6529853515625,0.045166015625,-1.0019378662109375,0.01983642578125
1672829360567033300,12.663033447265626,0.037933349609375,-0.999359130859375,0.0156097412109375
1672829360577082400,12.673082275390625,0.0366363525390625,-0.999298095703125,0.014251708984375
1672829360587130400,12.68313037109375,0.0408782958984375,-1.0020599365234375,0.0092926025390625
1672829360597178400,12.693178466796875,0.0453948974609375,-0.998291015625,0.009002685546875
1672829360607227400,12.703227294921875,0.037933349609375,-1.0001983642578125,-0.001708984375
1672829360617275100,12.713275146484374,0.02752685546875,-1.00103759765625,0.001495361328125
1672829360627323400,12.723323486328125,0.0206146240234375,-1.0002288818359375,0.008544921875
1672829360637371400,12.733371337890626,0.0154876708984375,-1.00250244140625,0.011749267578125
1672829360647420400,12.74342041015625,0.0191497802734375,-1.0000762939453125,0.0082855224609375
1672829360657468400,12.753468505859376,0.025482177734375,-0.9999847412109375,0.0078887939453125
1672829360667516200,12.76351611328125,0.02337646484375,-1.0017242431640625,0.010711669921875
1672829360677565400,12.7735654296875,0.0198974609375,-1.0011138916015625,0.0063934326171875
1672829360687613200,12.78361328125,0.01776123046875,-0.9990386962890625,-0.000030517578125
1672829360697661400,12.793661376953125,0.0191497802734375,-0.99859619140625,0.002532958984375
1672829360707709400,12.80370947265625,0.0182037353515625,-1.0006256103515625,0.0043182373046875
1672829360717758500,12.813758544921875,0.0110321044921875,-1.0025787353515625,0.0096282958984375
1672829360727806200,12.82380615234375,0.013763427734375,-1.0019683837890625,0.00933837890625
1672829360737854200,12.833854248046874,0.0208587646484375,-1.000396728515625,0.00994873046875
1672829360747903000,12.843903076171875,0.0247650146484375,-0.999725341796875,0.0065765380859375
1672829360757952000,12.853951904296874,0.0308990478515625,-1.00164794921875,0.0066986083984375
1672829360768000000,12.864,0.0391693115234375,-0.9994049072265625,0.0117340087890625
1672829360778047700,12.8740478515625,0.03924560546875,-0.9980316162109375,0.008697509765625
1672829360788097000,12.884096923828125,0.0403900146484375,-0.998443603515625,0.0112457275390625
1672829360798144800,12.894144775390625,0.044677734375,-0.996307373046875,0.009613037109375
1672829360808193000,12.904193115234374,0.0467529296875,-0.99755859375,0.0075836181640625
1672829360818240800,12.91424072265625,0.043487548828125,-0.997711181640625,0.006683349609375
1672829360828290000,12.9242900390625,0.036712646484375,-0.996978759765625,0.004302978515625
1672829360838337800,12.934337890625,0.043731689453125,-0.9988555908203125,0.01025390625
1672829360848385800,12.9443857421875,0.05487060546875,-0.99774169921875,0.0136260986328125
1672829360858434800,12.954434814453125,0.0616912841796875,-0.9955902099609375,0.0107421875
1672829360868482800,12.96448291015625,0.0590057373046875,-0.995849609375,0.007171630859375
1672829360878531000,12.974531005859374,0.0527496337890625,-0.997650146484375,0.007232666015625
1672829360888578800,12.984578857421875,0.052276611328125,-0.998199462890625,0.0067901611328125
1672829360898628000,12.994628173828126,0.0581512451171875,-0.9965667724609375,0.0080108642578125
1672829360908675800,13.00467578125,0.057525634765625,-0.9954986572265625,0.009429931640625
1672829360918723800,13.014723876953125,0.0461578369140625,-0.9983978271484375,0.0079345703125
1672829360928772000,13.024772216796874,0.0373077392578125,-1.0006561279296875,0.010528564453125
1672829360938820900,13.03482080078125,0.03778076171875,-0.9999542236328125,0.0122833251953125
1672829360948868900,13.044868896484376,0.04962158203125,-0.9960784912109375,0.01373291015625
1672829360958916900,13.054916748046875,0.0677032470703125,-0.9957122802734375,0.0113525390625
1672829360968966000,13.0649658203125,0.0794219970703125,-0.9922943115234375,0.013092041015625
1672829360979014000,13.075013916015624,0.0718841552734375,-0.9930419921875,0.003631591796875
1672829360989062000,13.085061767578125,0.05950927734375,-0.997833251953125,0.003021240234375
1672829360999110000,13.09510986328125,0.04986572265625,-0.9963836669921875,0.005767822265625
1672829361009159000,13.105158935546875,0.0406036376953125,-0.9996795654296875,0.0086822509765625
1672829361019207000,13.11520703125,0.0336151123046875,-0.998504638671875,0.010223388671875
1672829361029255000,13.1252548828125,0.02935791015625,-0.9994659423828125,0.012420654296875
1672829361039303700,13.1353037109375,0.027923583984375,-0.999969482421875,0.0083770751953125
1672829361049352000,13.14535205078125,0.0275726318359375,-0.99951171875,0.0070343017578125
1672829361059400000,13.15539990234375,0.0305633544921875,-1.0001678466796875,0.0103912353515625
1672829361069448000,13.165447998046876,0.027069091796875,-1.000213623046875,0.007720947265625
1672829361079497000,13.1754970703125,0.0294036865234375,-1.00238037109375,0.0084686279296875
1672829361089544700,13.185544677734375,0.0302886962890625,-0.9994659423828125,0.0089874267578125
1672829361099593000,13.195593017578124,0.027099609375,-1.0008392333984375,0.0077972412109375
1672829361109641700,13.205641845703125,0.031463623046875,-0.9984893798828125,0.008758544921875
1672829361119690000,13.21568994140625,0.0345306396484375,-0.997711181640625,0.005889892578125
1672829361129737700,13.22573779296875,0.037628173828125,-0.9993438720703125,0.0048065185546875
1672829361139786000,13.235785888671876,0.03961181640625,-0.99951171875,0.0074310302734375
1672829361149834800,13.245834716796875,0.042266845703125,-1.000457763671875,0.0080718994140625
1672829361159882800,13.2558828125,0.045196533203125,-0.9974365234375,0.0114288330078125
1672829361169931000,13.265930908203124,0.0516204833984375,-0.9970855712890625,0.0102691650390625
1672829361179978800,13.275978759765625,0.0550994873046875,-0.997283935546875,0.009368896484375
1672829361190028000,13.286028076171876,0.0534210205078125,-0.99609375,0.0052490234375
1672829361200075800,13.29607568359375,0.0524139404296875,-0.998138427734375,0.0111236572265625
1672829361210123800,13.306123779296875,0.0539093017578125,-0.99737548828125,0.01446533203125
1672829361220172800,13.3161728515625,0.050872802734375,-1.000457763671875,0.0148773193359375
1672829361230220800,13.326220703125,0.0432891845703125,-0.9993438720703125,0.0076141357421875
1672829361240269000,13.33626904296875,0.0452423095703125,-0.9990386962890625,0.0128326416015625
1672829361250316800,13.34631689453125,0.051239013671875,-0.997039794921875,0.0089569091796875
1672829361260366000,13.356365966796876,0.0491485595703125,-0.99969482421875,0.0088348388671875
1672829361270413800,13.366413818359375,0.0394439697265625,-1.0005645751953125,0.0077972412109375
1672829361280461800,13.3764619140625,0.031097412109375,-1.002899169921875,0.00482177734375
1672829361290509800,13.386509765625,0.0281982421875,-1.0028533935546875,0.0044708251953125
1672829361300558800,13.396558837890625,0.03082275390625,-1.0013275146484375,0.005767822265625
1672829361310606800,13.40660693359375,0.03717041015625,-1.001495361328125,0.0030975341796875
1672829361320654800,13.41665478515625,0.0454559326171875,-0.999237060546875,-0.0112762451171875
1672829361330704000,13.426703857421876,0.0576934814453125,-0.9976348876953125,0.015594482421875
1672829361340752000,13.436751953125,0.0623931884765625,-0.9976806640625,0.017486572265625
1672829361350800000,13.4467998046875,0.0655975341796875,-1.0000457763671875,0.00982666015625
1672829361360848000,13.456847900390626,0.0701141357421875,-1.000335693359375,0.0192108154296875
1672829361370897000,13.46689697265625,0.0755615234375,-0.9948577880859375,0.0099639892578125
1672829361380945000,13.47694482421875,0.07171630859375,-0.998504638671875,0.003173828125
1672829361390993000,13.486992919921875,0.093902587890625,-0.99444580078125,0.0223236083984375
1672829361401042000,13.4970419921875,0.0931549072265625,-0.9945220947265625,0.02276611328125
1672829361411090000,13.50708984375,0.0857696533203125,-0.995697021484375,0.009857177734375
1672829361421138000,13.517137939453125,0.0963134765625,-0.995147705078125,0.016326904296875
1672829361431186000,13.52718603515625,0.1078338623046875,-0.99359130859375,0.0084228515625
1672829361441235000,13.53723486328125,0.1199798583984375,-0.9910736083984375,0.0088653564453125
1672829361451283000,13.547282958984376,0.12957763671875,-0.990447998046875,0.01104736328125
1672829361461331000,13.5573310546875,0.1343231201171875,-0.987548828125,0.00921630859375
1672829361471378700,13.567378662109375,0.1389312744140625,-0.9864044189453125,0.01171875
1672829361481428000,13.577427978515624,0.1529083251953125,-0.984649658203125,0.01446533203125
1672829361491475700,13.587475830078125,0.17169189453125,-0.97979736328125,0.009490966796875
1672829361501524000,13.59752392578125,0.1769256591796875,-0.9805145263671875,0.0043792724609375
1672829361511572700,13.60757275390625,0.18505859375,-0.97967529296875,0.0063018798828125
1672829361521621000,13.61762109375,0.1898193359375,-0.9778900146484375,0.00927734375
1672829361531669000,13.6276689453125,0.1802825927734375,-0.97869873046875,0.008087158203125
1672829361541716700,13.637716796875,0.188629150390625,-0.9754486083984375,0.0110626220703125
1672829361551766000,13.64776611328125,0.222991943359375,-0.9689178466796875,0.0143280029296875
1672829361561813800,13.657813720703125,0.1825103759765625,-0.9725799560546875,-0.0059661865234375
1672829361571862000,13.667862060546875,0.2261199951171875,-0.96929931640625,0.0170745849609375
1672829361581910000,13.677909912109374,0.2808074951171875,-0.95050048828125,0.01605224609375
1672829361591959000,13.687958984375,0.29425048828125,-0.94342041015625,0.0037078857421875
1672829361602007000,13.698007080078124,0.280914306640625,-0.9509735107421875,0.00531005859375
1672829361612054800,13.7080546875,0.3019866943359375,-0.9393768310546875,0.0101318359375
1672829361622103800,13.718103759765626,0.328277587890625,-0.9336090087890625,0.005096435546875
1672829361632151800,13.72815185546875,0.344482421875,-0.927978515625,0.0031585693359375
1672829361642200000,13.738199951171875,0.35382080078125,-0.9246368408203125,0.0156402587890625
1672829361652247800,13.748247802734374,0.353759765625,-0.9240875244140625,0.0150909423828125
1672829361662297000,13.758297119140625,0.337158203125,-0.9234466552734375,0.01141357421875
1672829361672344800,13.7683447265625,0.3378753662109375,-0.9178466796875,0.01788330078125
1672829361682392800,13.778392822265625,0.35888671875,-0.91058349609375,0.0163726806640625
1672829361692441000,13.788441162109375,0.3643646240234375,-0.903778076171875,0.0002899169921875
1672829361702489900,13.79848974609375,0.3814849853515625,-0.9056549072265625,0.028594970703125
1672829361712538000,13.8085380859375,0.447906494140625,-0.876312255859375,0.01678466796875
1672829361722585900,13.8185859375,0.5296173095703125,-0.8380126953125,0.006134033203125
1672829361732635000,13.828634765625,0.554473876953125,-0.8211517333984375,-0.0110321044921875
1672829361742683000,13.838682861328126,0.537811279296875,-0.8311309814453125,-0.0150604248046875
1672829361752730400,13.84873046875,0.5360107421875,-0.8413848876953125,0.01873779296875
1672829361762778400,13.8587783203125,0.5406646728515625,-0.8249053955078125,0.0175933837890625
1672829361772827100,13.8688271484375,0.550262451171875,-0.8195953369140625,0.0126800537109375
1672829361782875400,13.87887548828125,0.54052734375,-0.832122802734375,0.023468017578125
1672829361792923100,13.888923095703126,0.585479736328125,-0.7995452880859375,0.02655029296875
1672829361802971400,13.898971435546875,0.6242218017578125,-0.77593994140625,0.008056640625
1672829361813020200,13.909020263671875,0.6347808837890625,-0.7685089111328125,0.0057220458984375
1672829361823068400,13.919068359375,0.6493072509765625,-0.7625274658203125,0.0059356689453125
1672829361833116400,13.929116455078125,0.682342529296875,-0.741302490234375,0.0086669921875
1672829361843165200,13.939165283203126,0.722381591796875,-0.7079010009765625,0.007354736328125
1672829361853213200,13.949213134765625,0.7183074951171875,-0.711700439453125,0.0030059814453125
1672829361863261200,13.95926123046875,0.7065582275390625,-0.7403411865234375,0.0157318115234375
1672829361873309400,13.969309326171874,0.699615478515625,-0.72998046875,0.0211639404296875
1672829361883358200,13.979358154296875,0.71160888671875,-0.7145538330078125,0.017608642578125
1672829361893406200,13.98940625,0.72137451171875,-0.7034912109375,0.0095977783203125
1672829361903454200,13.9994541015625,0.7328643798828125,-0.6766510009765625,0.007904052734375
1672829361913502200,14.009502197265626,0.748260498046875,-0.633514404296875,-0.0084686279296875
1672829361923551200,14.01955126953125,0.7536773681640625,-0.6376800537109375,-0.0022125244140625
1672829361933599200,14.02959912109375,0.7421417236328125,-0.7561492919921875,0.03485107421875
1672829361943647500,14.0396474609375,0.7408599853515625,-0.6885833740234375,0.0152130126953125
1672829361953696300,14.0496962890625,0.755828857421875,-0.643402099609375,0.0080718994140625
1672829361963744300,14.059744140625,0.75811767578125,-0.6577911376953125,0.01287841796875
1672829361973792300,14.069792236328125,0.74798583984375,-0.65625,0.0243072509765625
1672829361983840300,14.07984033203125,0.75860595703125,-0.646697998046875,0.0291748046875
1672829361993889300,14.08988916015625,0.739410400390625,-0.6393585205078125,0.0150299072265625
1672829362003937300,14.099937255859375,0.7420196533203125,-0.610382080078125,-0.006011962890625
1672829362013985300,14.1099853515625,0.774566650390625,-0.582916259765625,-0.0207977294921875
1672829362024033300,14.120033203125,0.8024139404296875,-0.543365478515625,-0.027740478515625
1672829362034082000,14.13008203125,0.8001708984375,-0.5608673095703125,-0.0200347900390625
1672829362044130300,14.14013037109375,0.8055572509765625,-0.56793212890625,0.0216827392578125
1672829362054178300,14.15017822265625,0.8311767578125,-0.5418243408203125,0.012237548828125
1672829362064227300,14.160227294921874,0.85284423828125,-0.5250244140625,0.01025390625
1672829362074275300,14.170275390625,0.8688507080078125,-0.5072479248046875,0.0119476318359375
1672829362084323000,14.180322998046876,0.8898773193359375,-0.4911956787109375,0.0098114013671875
1672829362094371300,14.190371337890625,0.9115142822265625,-0.4683685302734375,-0.0072174072265625
1672829362104420000,14.200420166015626,0.9003143310546875,-0.4672088623046875,-0.001678466796875
1672829362114468400,14.21046826171875,0.89251708984375,-0.464324951171875,0.0152130126953125
1672829362124516400,14.220516357421875,0.896026611328125,-0.45025634765625,0.00750732421875
1672829362134564000,14.230564208984376,0.902801513671875,-0.437042236328125,0.005035400390625
1672829362144613400,14.24061328125,0.917938232421875,-0.4190521240234375,0.0053558349609375
1672829362154661000,14.2506611328125,0.944793701171875,-0.399139404296875,0.0087738037109375
1672829362164709400,14.26070947265625,0.9562225341796875,-0.3876190185546875,0.0110626220703125
1672829362174758100,14.270758056640625,0.95416259765625,-0.375091552734375,0.0079345703125
1672829362184806400,14.280806396484374,0.9539947509765625,-0.3703155517578125,0.00872802734375
1672829362194854100,14.290854248046875,0.9536285400390625,-0.3614959716796875,0.008331298828125
1672829362204902100,14.300902099609376,0.954833984375,-0.351531982421875,0.008331298828125
1672829362214951200,14.310951171875,0.9542999267578125,-0.3433837890625,0.011199951171875
1672829362224999200,14.320999267578125,0.9481048583984375,-0.3333740234375,0.005340576171875
1672829362235047400,14.33104736328125,0.953765869140625,-0.3204498291015625,0.004638671875
1672829362245095200,14.34109521484375,0.9663238525390625,-0.3062744140625,0.0080718994140625
1672829362255144400,14.35114453125,0.9705047607421875,-0.2955780029296875,0.0101776123046875
1672829362265192200,14.361192138671875,0.9679718017578125,-0.288543701171875,0.007659912109375
1672829362275240200,14.371240234375,0.9630126953125,-0.2799072265625,0.0075225830078125
1672829362285288400,14.381288330078124,0.9599609375,-0.2711334228515625,0.004974365234375
1672829362295337200,14.391337158203125,0.9662628173828125,-0.2576446533203125,0.000732421875
1672829362305385500,14.401385498046874,0.981689453125,-0.244140625,-0.0053558349609375
1672829362315433200,14.41143310546875,0.9936065673828125,-0.23193359375,-0.0045013427734375
1672829362325481200,14.421481201171876,0.9858856201171875,-0.2199859619140625,-0.00335693359375
1672829362335530200,14.4315302734375,0.9738922119140625,-0.213409423828125,-0.0055084228515625
1672829362345578200,14.441578125,0.9712066650390625,-0.2063446044921875,-0.001922607421875
1672829362355626200,14.451626220703124,0.9786834716796875,-0.1989593505859375,0.0041656494140625
1672829362365675300,14.46167529296875,0.989410400390625,-0.1699676513671875,0.0074615478515625
1672829362375723300,14.47172314453125,0.9881744384765625,-0.162872314453125,0.00677490234375
1672829362385771300,14.481771240234375,0.9835662841796875,-0.155609130859375,-0.002716064453125
1672829362395819300,14.4918193359375,1.0111541748046875,-0.124786376953125,-0.0155792236328125
1672829362405868300,14.501868408203125,1.0221710205078125,-0.1123809814453125,-0.02142333984375
1672829362415916300,14.511916259765625,1.02325439453125,-0.1094970703125,-0.0155487060546875
1672829362425964300,14.52196435546875,1.011322021484375,-0.10107421875,-0.0042724609375
1672829362436012300,14.53201220703125,0.9956817626953125,-0.092437744140625,0.002105712890625
1672829362446061300,14.542061279296876,0.990203857421875,-0.07965087890625,-0.0030059814453125
1672829362456109300,14.552109375,0.9953460693359375,-0.051788330078125,-0.0207977294921875
1672829362466157300,14.5621572265625,0.9998016357421875,-0.0236968994140625,-0.04852294921875
1672829362476205300,14.572205322265624,0.9968109130859375,-0.009918212890625,-0.05926513671875
1672829362486254300,14.58225439453125,0.99554443359375,-0.0001678466796875,-0.0533599853515625
1672829362496302300,14.59230224609375,1.1096038818359375,0.01617431640625,-0.017303466796875
1672829362506350300,14.602350341796875,1.51263427734375,0.0238800048828125,0.2524261474609375
1672829362516399400,14.6123994140625,1.101837158203125,-0.089569091796875,0.177154541015625
1672829362526447400,14.622447265625,0.91497802734375,-0.0166168212890625,-0.0199127197265625
1672829362536495000,14.6324951171875,0.9624176025390625,-0.0366058349609375,-0.03533935546875
1672829362546543400,14.64254345703125,1.0314178466796875,-0.001129150390625,0.0408172607421875
1672829362556592000,14.652592041015625,1.0173492431640625,-0.0218505859375,-0.0020599365234375
1672829362566640400,14.662640380859376,0.9972686767578125,-0.0189361572265625,0.0050506591796875
1672829362576688400,14.6726884765625,0.989898681640625,-0.0288543701171875,0.0081024169921875
1672829362586736000,14.682736083984375,1.0328369140625,-0.01800537109375,0.01873779296875
1672829362596785400,14.692785400390624,0.9659423828125,-0.01287841796875,0.023406982421875
1672829362606833200,14.702833251953125,1.0406951904296875,-0.0027313232421875,0.0607757568359375
1672829362616881400,14.71288134765625,0.9613189697265625,-0.029052734375,0.0651397705078125
1672829362626929400,14.722929443359375,0.970672607421875,-0.011627197265625,0.0386962890625
1672829362636978200,14.732978271484376,0.9468841552734375,-0.0235595703125,0.0095977783203125
1672829362647026200,14.743026123046874,0.9238433837890625,-0.0301513671875,-0.0145263671875
1672829362657074200,14.75307421875,0.99810791015625,0.0167694091796875,-0.0811309814453125
1672829362667122400,14.763122314453126,1.2951812744140625,0.0528717041015625,-0.0460052490234375
1672829362677171200,14.773171142578125,1.04595947265625,0.028106689453125,0.0088653564453125
1672829362687219500,14.783219482421876,0.9655914306640625,0.0020904541015625,0.0289154052734375
1672829362697267200,14.79326708984375,1.03948974609375,0.00396728515625,0.0108642578125
1672829362707316200,14.803316162109375,0.990814208984375,0.023284912109375,-0.005340576171875
1672829362717364200,14.8133642578125,1.0001678466796875,0.0252685546875,-0.01947021484375
1672829362727412200,14.823412109375,1.0268402099609375,0.0237274169921875,-0.0316162109375
1672829362737460500,14.83346044921875,0.9938812255859375,0.0246429443359375,-0.027801513671875
1672829362747509000,14.843509033203125,1.035003662109375,0.018463134765625,-0.0045013427734375
1672829362757557000,14.853556884765625,0.9970245361328125,0.0076446533203125,0.0039520263671875
1672829362767605000,14.86360498046875,1.0084686279296875,0.0104217529296875,-0.0023651123046875
1672829362777653000,14.873653076171875,1.0115966796875,0.016632080078125,-0.0032806396484375
1672829362787702000,14.883701904296874,1.0085296630859375,0.0196685791015625,0.00244140625
1672829362797750000,14.89375,1.01806640625,0.0200958251953125,0.002777099609375
1672829362807798000,14.903798095703126,1.00408935546875,0.0163726806640625,0.0026092529296875
1672829362817846000,14.913845947265624,1.01171875,0.011077880859375,0.0018310546875
1672829362827895000,14.92389501953125,1.0064239501953125,0.0076446533203125,-0.000244140625
1672829362837943000,14.933943115234374,1.013763427734375,0.00750732421875,0.0039215087890625
1672829362847991000,14.943990966796875,1.0149078369140625,0.0133514404296875,0.0067596435546875
1672829362858038800,14.954038818359376,1.01251220703125,0.0201263427734375,0.00299072265625
1672829362868088000,14.964088134765625,1.0099639892578125,0.0206146240234375,-0.001800537109375
1672829362878135800,14.9741357421875,1.0068817138671875,0.01824951171875,-0.00482177734375
1672829362888184000,14.98418408203125,1.0132598876953125,0.015655517578125,-0.001800537109375
1672829362898232800,14.99423291015625,1.011199951171875,0.0111083984375,0.003082275390625
1672829362908281000,15.004281005859376,1.0178070068359375,0.0080413818359375,0.00531005859375
1672829362918329000,15.0143291015625,1.0092010498046875,0.0156402587890625,-0.0004119873046875
1672829362928376800,15.024376953125,1.0126953125,0.021575927734375,-0.0010223388671875
1672829362938426000,15.034426025390625,1.0083770751953125,0.0246429443359375,0.0011749267578125
1672829362948473900,15.044473876953125,1.01202392578125,0.0210113525390625,0.0019989013671875
1672829362958522000,15.054522216796874,1.0218963623046875,0.0138092041015625,0.00225830078125
1672829362968570000,15.064570068359375,1.0219268798828125,0.0083465576171875,-0.0010833740234375
1672829362978619000,15.074618896484376,1.02850341796875,0.0075836181640625,0.00445556640625
1672829362988667100,15.084667236328125,1.0298309326171875,0.004150390625,0.0345611572265625
1672829362998715000,15.09471484375,0.9610443115234375,0.0305023193359375,-0.0895843505859375
1672829363008763100,15.10476318359375,1.0204010009765625,-0.0175323486328125,0.0625152587890625
1672829363018812000,15.11481201171875,0.995391845703125,0.0157623291015625,-0.0276641845703125
1672829363028860200,15.124860107421876,0.98065185546875,0.0670623779296875,0.0196990966796875
1672829363038908000,15.134907958984375,1.005462646484375,0.0163116455078125,0.0045166015625
1672829363048956000,15.144955810546875,1.0100250244140625,0.007476806640625,0.000518798828125
1672829363059005000,15.1550048828125,1.009918212890625,0.01312255859375,0.0075225830078125
1672829363069053000,15.165052978515625,1.0128936767578125,0.0167999267578125,0.0021514892578125
1672829363079101200,15.17510107421875,1.0092620849609375,0.0219573974609375,0.000732421875
1672829363089150000,15.18514990234375,1.0077362060546875,0.0225067138671875,-0.000885009765625
1672829363099198000,15.195197998046876,1.0098419189453125,0.01959228515625,0.00140380859375
1672829363109246000,15.205245849609375,1.006622314453125,0.0163421630859375,0.002899169921875
1672829363119294000,15.2152939453125,1.01226806640625,0.0131378173828125,0.005889892578125
1672829363129343000,15.225343017578124,1.00830078125,0.011962890625,0.004852294921875
1672829363139391000,15.235390869140625,1.0097808837890625,0.0156402587890625,0.0025177001953125
1672829363149439000,15.24543896484375,1.0092315673828125,0.0205535888671875,0.000946044921875
1672829363159487000,15.255487060546875,1.0081939697265625,0.022003173828125,0.001190185546875
1672829363169536000,15.265535888671875,1.0117645263671875,0.021636962890625,0.0025787353515625
1672829363179584000,15.275583984375,1.0084991455078125,0.0189361572265625,0.0017242431640625
1672829363189632000,15.285632080078125,1.0119781494140625,0.0145263671875,0.002716064453125
1672829363199680000,15.295679931640626,1.00897216796875,0.0117340087890625,0.003265380859375
1672829363209729000,15.30572900390625,1.009490966796875,0.012847900390625,0.0032958984375
1672829363219776800,15.31577685546875,1.0096282958984375,0.0171661376953125,0.0019989013671875
1672829363229825000,15.325824951171874,1.0105743408203125,0.02069091796875,0.0013427734375
1672829363239873000,15.335873046875,1.00946044921875,0.02227783203125,0.0015716552734375
1672829363249922000,15.345922119140624,1.0123291015625,0.0213470458984375,0.0009613037109375
1672829363259970000,15.355969970703125,1.0095672607421875,0.0169219970703125,0.0027008056640625
1672829363270017800,15.366017822265626,1.0062408447265625,0.0128936767578125,0.0036163330078125
1672829363280066000,15.376066162109375,1.0116424560546875,0.01123046875,0.0045623779296875
1672829363290114800,15.38611474609375,1.008209228515625,0.013275146484375,0.00341796875
1672829363300163000,15.3961630859375,1.010986328125,0.0160675048828125,0.002227783203125
1672829363310210800,15.4062109375,1.0099639892578125,0.019927978515625,0.0009765625
1672829363320258800,15.4162587890625,1.0102996826171875,0.021881103515625,0.000885009765625
1672829363330307800,15.426307861328125,1.0096282958984375,0.019775390625,0.0021820068359375
1672829363340355800,15.43635595703125,1.004638671875,0.0168609619140625,0.0022735595703125
1672829363350404000,15.446404052734374,1.0102691650390625,0.0144195556640625,0.0034332275390625
1672829363360451800,15.456451904296875,1.010711669921875,0.0137939453125,0.004119873046875
1672829363370501000,15.466501220703124,1.0032196044921875,0.016571044921875,0.00238037109375
1672829363380548900,15.476548828125,1.0133209228515625,0.0179901123046875,0.0017852783203125
1672829363390596900,15.486596923828126,1.019073486328125,0.018646240234375,0.00341796875
1672829363400646000,15.49664599609375,1.0079193115234375,0.02166748046875,0.0034637451171875
1672829363410694000,15.50669384765625,1.0127105712890625,0.0164031982421875,0.0032196044921875
1672829363420742100,15.5167421875,1.004547119140625,0.0137176513671875,0.0003662109375
1672829363430790000,15.526789794921875,1.0104217529296875,0.0113067626953125,0.0030364990234375
1672829363440839200,15.536839111328124,1.0084228515625,0.0135650634765625,0.004302978515625
1672829363450887000,15.546886962890625,1.0095977783203125,0.0179290771484375,0.00390625
1672829363460935000,15.556934814453125,1.01263427734375,0.0214385986328125,0.0019073486328125
1672829363470983000,15.56698291015625,1.0071258544921875,0.022064208984375,0.0007476806640625
1672829363481032000,15.577031982421875,1.0089111328125,0.0206146240234375,0.00006103515625
1672829363491080000,15.587079833984374,1.0102386474609375,0.0167388916015625,0.00299072265625
1672829363501128000,15.5971279296875,1.0107574462890625,0.01385498046875,0.004669189453125
1672829363511176000,15.607176025390626,1.0103912353515625,0.0138092041015625,0.0054168701171875
1672829363521225000,15.617224853515625,1.0101318359375,0.0149688720703125,0.0042724609375
1672829363531273000,15.62727294921875,1.00665283203125,0.01751708984375,0.001312255859375
1672829363541321000,15.637321044921874,1.010650634765625,0.02001953125,0.0001373291015625
1672829363551369000,15.647368896484375,1.0162353515625,0.018310546875,0.0023956298828125
1672829363561418000,15.65741796875,1.0032958984375,0.017303466796875,0.003173828125
1672829363571466000,15.667466064453125,1.018280029296875,0.0152740478515625,0.003753662109375
1672829363581514000,15.677513916015625,1.0021820068359375,0.0136566162109375,0.0035552978515625
1672829363591562000,15.68756201171875,1.0106658935546875,0.015289306640625,0.003204345703125
1672829363601611000,15.697611083984375,1.009307861328125,0.01885986328125,0.0001068115234375
1672829363611659000,15.707658935546876,1.0064697265625,0.0213470458984375,0.0010986328125
1672829363621707000,15.71770703125,1.0184783935546875,0.021759033203125,0.00299072265625
1672829363631754800,15.727754638671875,1.0047760009765625,0.0181121826171875,0.002349853515625
1672829363641804000,15.737803955078125,1.0084381103515625,0.0152130126953125,0.0020904541015625
1672829363651851800,15.747851806640625,1.0125885009765625,0.0110931396484375,0.00299072265625
1672829363661900000,15.757900146484374,1.0089569091796875,0.0120849609375,0.0041046142578125
1672829363671948000,15.767947998046875,1.012176513671875,0.01605224609375,0.0045928955078125
1672829363681997000,15.7779970703125,1.0092010498046875,0.018798828125,0.0022125244140625
1672829363692045000,15.788045166015625,1.00970458984375,0.02032470703125,-0.0028533935546875
1672829363702092800,15.7980927734375,1.0105438232421875,0.0196685791015625,0.0009918212890625
1672829363712142000,15.80814208984375,1.0090179443359375,0.0170135498046875,0.005401611328125
1672829363722189800,15.81818994140625,1.0112762451171875,0.015167236328125,0.005401611328125
1672829363732238000,15.828238037109376,1.010833740234375,0.0153656005859375,0.00543212890625
1672829363742286000,15.8382861328125,1.007659912109375,0.0158843994140625,0.0027618408203125
1672829363752336100,15.848336181640626,1.0092620849609375,0.0183868408203125,0.0010528564453125
1672829363762384000,15.8583837890625,1.0116119384765625,0.017913818359375,0.0019683837890625
1672829363772432100,15.86843212890625,1.010894775390625,0.020477294921875,0.003753662109375
1672829363782480100,15.878480224609374,1.009674072265625,0.0170440673828125,0.0025177001953125
1672829363792529000,15.88852880859375,1.0094146728515625,0.0160675048828125,0.0029296875
1672829363802577000,15.898576904296876,1.008056640625,0.0159759521484375,0.0026397705078125
1672829363812625000,15.908625,1.008331298828125,0.0163726806640625,0.001953125
1672829363822673200,15.918673095703125,1.01177978515625,0.0175628662109375,0.002288818359375
1672829363832722000,15.928721923828125,1.008819580078125,0.017822265625,0.0023193359375
1672829363842770000,15.93877001953125,1.0073089599609375,0.0182037353515625,0.0025634765625
1672829363852818000,15.94881787109375,1.0135040283203125,0.016387939453125,0.0036773681640625
1672829363862866000,15.958865966796875,1.0071868896484375,0.0159149169921875,0.00164794921875
1672829363872915000,15.9689150390625,1.01263427734375,0.0153961181640625,0.0042724609375
1672829363882963000,15.978962890625,1.0148773193359375,0.011962890625,-0.0008392333984375
1672829363893011200,15.98901123046875,1.0187225341796875,0.019775390625,-0.0003509521484375
1672829363903059000,15.999058837890624,1.0083465576171875,0.0167083740234375,0.003997802734375
1672829363913108000,16.00910791015625,0.995574951171875,0.022705078125,0.0071868896484375
1672829363923156000,16.019156005859376,1.0077362060546875,0.0162200927734375,-0.002532958984375
1672829363933204000,16.029203857421876,1.0109710693359375,0.0160064697265625,0.0044708251953125
1672829363943252000,16.039251953125,1.0099639892578125,0.0152435302734375,0.0040435791015625
1672829363953301000,16.049301025390626,1.011962890625,0.0165252685546875,0.00469970703125
1672829363963349000,16.059348876953123,1.008514404296875,0.0158538818359375,0.00225830078125
1672829363973397000,16.06939697265625,1.0095062255859375,0.0171966552734375,-0.0003662109375
1672829363983445000,16.079445068359377,1.0103912353515625,0.0172576904296875,0.00274658203125
1672829363993494000,16.089493896484374,1.0092926025390625,0.01702880859375,0.0030517578125
1672829364003542000,16.0995419921875,1.008544921875,0.0177001953125,0.0022430419921875
1672829364013589800,16.10958984375,1.011474609375,0.0159454345703125,0.0036468505859375
1672829364023638000,16.119637939453124,1.0088043212890625,0.0086669921875,0.0002899169921875
1672829364033686800,16.129686767578125,1.0099029541015625,-0.013824462890625,-0.00335693359375
1672829364043735000,16.139735107421874,1.0129241943359375,0.011077880859375,-0.020782470703125
1672829364053783000,16.149782958984375,1.013580322265625,0.0076141357421875,-0.0207977294921875
1672829364063831000,16.1598310546875,1.0021209716796875,0.026336669921875,-0.02532958984375
1672829364073880000,16.169880126953124,1.0078125,0.015167236328125,-0.0159454345703125
1672829364083927800,16.179927734375,1.01287841796875,0.0117645263671875,-0.00408935546875
1672829364093976000,16.18997607421875,1.0098724365234375,0.010101318359375,0.0162811279296875
1672829364104023800,16.20002392578125,1.0078887939453125,0.012451171875,0.03955078125
1672829364114073000,16.210072998046876,1.00982666015625,0.0082855224609375,0.05291748046875
1672829364124120800,16.220120849609376,1.009918212890625,0.010955810546875,0.044342041015625
1672829364134168800,16.2301689453125,1.0109710693359375,0.0127716064453125,0.034088134765625
1672829364144217000,16.240217041015626,1.0089569091796875,0.0126800537109375,0.0245361328125
1672829364154265900,16.250265869140627,1.0101165771484375,0.02642822265625,0.0273895263671875
1672829364164314000,16.260314208984376,1.0120697021484375,0.028900146484375,0.0343780517578125
1672829364174361900,16.27036181640625,1.0100250244140625,0.0263824462890625,0.0283355712890625
1672829364184409900,16.280409912109373,1.0081939697265625,0.0306396484375,0.0220947265625
1672829364194459000,16.290458984375,1.011932373046875,0.03533935546875,0.025054931640625
1672829364204507000,16.3005068359375,1.010223388671875,0.0316314697265625,0.02935791015625
1672829364214554000,16.31055419921875,1.009033203125,0.0311279296875,0.035430908203125
1672829364224603000,16.320602783203125,1.0094146728515625,0.0306243896484375,0.0294952392578125
1672829364234651100,16.330651123046874,1.0060882568359375,0.020599365234375,0.01629638671875
1672829364244699000,16.340698974609374,1.013092041015625,0.0109710693359375,0.002655029296875
1672829364254747000,16.350746826171875,1.00604248046875,-0.0001068115234375,-0.002838134765625
1672829364264795100,16.360795166015624,1.015167236328125,-0.0031890869140625,-0.003173828125
1672829364274844000,16.370843994140625,1.009796142578125,-0.003509521484375,-0.013916015625
1672829364284892200,16.38089208984375,1.00616455078125,0.0074920654296875,-0.017303466796875
1672829364294940000,16.39093994140625,1.011566162109375,0.018829345703125,-0.0123748779296875
1672829364304989000,16.400989013671875,1.0114288330078125,0.0226287841796875,-0.0035247802734375
1672829364315037000,16.411036865234376,1.0106048583984375,0.0291900634765625,0.0124664306640625
1672829364325085000,16.4210849609375,1.0056915283203125,0.0302886962890625,0.0265350341796875
1672829364335133200,16.43113330078125,1.013397216796875,0.0246429443359375,0.0263519287109375
1672829364345182000,16.441181884765626,1.0107574462890625,0.013946533203125,0.01715087890625
1672829364355230200,16.451230224609375,1.0082244873046875,0.0108642578125,0.009063720703125
1672829364365278000,16.46127783203125,1.0099945068359375,-0.0029754638671875,-0.00286865234375
1672829364375326000,16.471325927734377,1.0097198486328125,-0.021240234375,-0.00213623046875
1672829364385375000,16.481375,1.011199951171875,-0.0295257568359375,0.0021514892578125
1672829364395423000,16.491423095703126,1.0124359130859375,-0.0321502685546875,0.0004730224609375
1672829364405471000,16.501470947265624,1.02020263671875,-0.019622802734375,0.036529541015625
1672829364415519000,16.51151904296875,1.00579833984375,0.0022735595703125,0.0510406494140625
1672829364425567700,16.521567626953125,1.0136871337890625,0.023834228515625,0.0473480224609375
1672829364435616000,16.531615966796874,1.0044708251953125,0.032135009765625,0.0312957763671875
1672829364445664000,16.5416640625,1.0049896240234375,0.0400848388671875,0.0256500244140625
1672829364455712000,16.5517119140625,1.0133514404296875,0.0343017578125,0.014739990234375
1672829364465761000,16.561760986328125,1.0016326904296875,0.0231781005859375,-0.0027313232421875
1672829364475808800,16.571808837890625,1.0113677978515625,0.0179901123046875,-0.0036468505859375
1672829364485857000,16.58185693359375,1.0118560791015625,0.0146484375,-0.006500244140625
1672829364495905000,16.591905029296875,1.004058837890625,0.007781982421875,-0.0107421875
1672829364505954000,16.6019541015625,1.00872802734375,0.009246826171875,-0.0127105712890625
1672829364516002000,16.612001953125,1.0067901611328125,0.0160064697265625,-0.0179290771484375
1672829364526050000,16.622050048828125,1.014984130859375,0.01995849609375,-0.0169525146484375
1672829364536098000,16.63209814453125,1.0084075927734375,0.018280029296875,-0.0139007568359375
1672829364546146800,16.642146728515623,1.0145263671875,0.01373291015625,-0.003021240234375
1672829364556195000,16.652195068359376,1.0159149169921875,0.0028076171875,0.010650634765625
1672829364566242800,16.662242919921876,1.01416015625,-0.0068206787109375,0.0212249755859375
1672829364576291000,16.672291015625,1.0065155029296875,-0.008636474609375,0.0248260498046875
1672829364586339800,16.68233984375,1.0105743408203125,-0.00872802734375,0.020721435546875
1672829364596387800,16.692387939453123,1.0093841552734375,-0.01104736328125,0.0132598876953125
1672829364606436000,16.70243603515625,1.007293701171875,-0.017303466796875,0.0043792724609375
1672829364616483800,16.71248388671875,1.0048980712890625,-0.0176239013671875,0.0016326904296875
1672829364626533000,16.722533203125,1.01092529296875,-0.017578125,0.0071868896484375
1672829364636580900,16.732580810546875,1.018768310546875,-0.0141448974609375,-0.00341796875
1672829364646628900,16.74262890625,1.0054779052734375,-0.0128173828125,-0.0049285888671875
1672829364656677000,16.752677001953124,1.0094757080078125,-0.0106048583984375,-0.000946044921875
1672829364666726000,16.762725830078125,1.015411376953125,0.00225830078125,0.0019989013671875
1672829364676774100,16.772774169921874,1.013214111328125,0.0173797607421875,0.006103515625
1672829364686822000,16.78282177734375,1.01092529296875,0.0375518798828125,0.0031890869140625
1672829364696870100,16.7928701171875,1.014801025390625,0.0485992431640625,0.006500244140625
1672829364706919000,16.8029189453125,1.010772705078125,0.0528717041015625,0.00164794921875
1672829364716967000,16.812966796875,1.0036468505859375,0.0522918701171875,0.0042724609375
1672829364727015000,16.823014892578126,1.0076141357421875,0.049041748046875,0.0082855224609375
1672829364737063000,16.83306298828125,0.9929656982421875,0.045257568359375,0.009765625
1672829364747112000,16.84311181640625,1.012847900390625,0.042144775390625,0.0209503173828125
1672829364757159200,16.8531591796875,1.02288818359375,0.04730224609375,0.02716064453125
1672829364767207200,16.863207275390625,0.99639892578125,0.0643463134765625,0.018798828125
1672829364777255400,16.87325537109375,0.9946746826171875,0.07000732421875,0.0204010009765625
1672829364787304200,16.88330419921875,1.0158233642578125,0.0623626708984375,0.0151214599609375
1672829364797352200,16.893352294921876,1.0011138916015625,0.0552825927734375,0.005279541015625
1672829364807400200,16.903400146484376,1.00433349609375,0.0469970703125,0.001129150390625
1672829364817448200,16.9134482421875,1.012603759765625,0.03863525390625,0.0126953125
1672829364827497200,16.923497314453126,1.0035400390625,0.02459716796875,0.014007568359375
1672829364837545200,16.933545166015627,1.0011749267578125,0.016448974609375,-0.0000762939453125
1672829364847593200,16.94359326171875,1.017791748046875,0.0052642822265625,-0.01519775390625
1672829364857641200,16.95364111328125,1.0283203125,-0.0115966796875,-0.027008056640625
1672829364867690200,16.963690185546874,1.008331298828125,-0.02484130859375,-0.043914794921875
1672829364877738200,16.97373828125,1.0041656494140625,-0.0287322998046875,-0.043853759765625
1672829364887786200,16.9837861328125,1.0145263671875,-0.0268402099609375,-0.0301971435546875
1672829364897838000,16.993838134765625,1.0118865966796875,-0.017852783203125,-0.00970458984375
1672829364907886300,17.00388623046875,1.009765625,-0.0121002197265625,0.0015869140625
1672829364917934000,17.01393408203125,1.002838134765625,0.001495361328125,0.0026702880859375
1672829364927982300,17.023982421875,1.012969970703125,0.00994873046875,0.00421142578125
1672829364938031000,17.034031005859376,1.008026123046875,0.0091400146484375,0.0052490234375
1672829364948079000,17.0440791015625,1.00885009765625,0.0117034912109375,0.0036468505859375
1672829364958127400,17.05412744140625,1.0153350830078125,0.0128326416015625,0.0088958740234375
1672829364968175000,17.064175048828126,1.0134124755859375,0.0017852783203125,0.008453369140625
1672829364978224400,17.074224365234375,1.0050506591796875,-0.0078125,0.003082275390625
1672829364988272000,17.084272216796876,1.007232666015625,-0.0127105712890625,0.0055389404296875
1672829364998320400,17.0943203125,1.0065155029296875,-0.0122222900390625,0.0125732421875
1672829365008368000,17.1043681640625,1.0129547119140625,-0.0297698974609375,0.04010009765625
1672829365018417200,17.114417236328126,1.0284423828125,-0.0216217041015625,0.046173095703125
1672829365028465200,17.124465087890623,1.0145721435546875,-0.005767822265625,0.03118896484375
1672829365038513200,17.13451318359375,1.005584716796875,-0.007568359375,0.0389862060546875
1672829365048561400,17.1445615234375,1.010345458984375,-0.012298583984375,0.062103271484375
1672829365058610200,17.154610107421874,1.0087738037109375,-0.0090789794921875,0.083526611328125
1672829365068658200,17.164658203125,1.005859375,-0.005126953125,0.0838623046875
1672829365078706200,17.1747060546875,1.014495849609375,0.001556396484375,0.06182861328125
1672829365088754200,17.184754150390624,1.005645751953125,0.0086517333984375,0.0242919921875
1672829365098803200,17.19480322265625,1.0088043212890625,0.011383056640625,-0.0019683837890625
1672829365108851200,17.204851318359374,1.007232666015625,0.015289306640625,-0.0095977783203125
1672829365118899200,17.214899169921875,1.0116424560546875,0.0111083984375,-0.008453369140625
1672829365128947200,17.224947265625,1.012451171875,-0.0020294189453125,-0.0121002197265625
1672829365138996200,17.234996337890625,1.0159149169921875,0.0130615234375,0.0124359130859375
1672829365149044200,17.245044189453125,1.014312744140625,0.0284423828125,0.031036376953125
1672829365159092200,17.25509228515625,0.996002197265625,0.027099609375,0.031097412109375
1672829365169140200,17.26514013671875,1.01025390625,0.0183258056640625,0.040435791015625
1672829365179189200,17.275189208984376,1.01226806640625,0.0111236572265625,0.0357208251953125
1672829365189237000,17.285237060546876,1.00250244140625,0.010223388671875,0.0251617431640625
1672829365199285200,17.29528515625,1.0168304443359375,0.013214111328125,0.019256591796875
1672829365209333200,17.305333251953126,1.001556396484375,0.02215576171875,0.015533447265625
1672829365219382300,17.31538232421875,1.0170440673828125,0.033355712890625,0.0376129150390625
1672829365229430300,17.32543017578125,1.011566162109375,0.0390167236328125,0.052734375
1672829365239478000,17.33547802734375,1.0115814208984375,0.035888671875,0.0526885986328125
1672829365249526300,17.3455263671875,1.010986328125,0.027801513671875,0.046722412109375
1672829365259575000,17.355574951171874,1.01416015625,0.01861572265625,0.032684326171875
1672829365269623300,17.365623291015623,1.006683349609375,0.0170745849609375,0.0023193359375
1672829365279671300,17.37567138671875,1.0089874267578125,0.011810302734375,0.003631591796875
1672829365289719300,17.38571923828125,1.006561279296875,-0.00482177734375,0.0151824951171875
1672829365299768300,17.395768310546874,1.01666259765625,-0.015655517578125,0.022216796875
1672829365309816000,17.405816162109375,1.0075225830078125,-0.0264129638671875,0.0155181884765625
1672829365319864300,17.4158642578125,1.0083770751953125,-0.0177001953125,-0.0027313232421875
1672829365329912000,17.425912109375,1.0191192626953125,-0.0056304931640625,-0.01263427734375
1672829365339961300,17.43596142578125,1.00897216796875,0.00115966796875,-0.0216827392578125
1672829365350009000,17.446009033203126,1.0142822265625,0.0286865234375,-0.042755126953125
1672829365360057000,17.45605712890625,0.999420166015625,0.06024169921875,-0.07122802734375
1672829365370105300,17.466105224609375,1.0082550048828125,0.0770263671875,-0.0670318603515625
1672829365380154000,17.476154052734376,1.0021820068359375,0.0754852294921875,-0.0572509765625
1672829365390202400,17.486202392578125,1.013671875,0.0547637939453125,-0.0378570556640625
1672829365400250000,17.49625,1.0121612548828125,0.026153564453125,-0.0338897705078125
1672829365410298000,17.506298095703126,1.008148193359375,0.0126953125,-0.026092529296875
1672829365420347100,17.51634716796875,1.0078582763671875,0.01507568359375,-0.0240020751953125
1672829365430395100,17.52639501953125,1.0098419189453125,0.018096923828125,-0.0263671875
1672829365440443400,17.536443359375,1.0086212158203125,0.007598876953125,-0.01593017578125
1672829365450491100,17.5464912109375,1.0095672607421875,0.0002593994140625,-0.003662109375
1672829365460540400,17.55654052734375,1.00714111328125,-0.000732421875,0.0005340576171875
1672829365470588200,17.566588134765624,1.0117340087890625,0.004608154296875,0.0174560546875
1672829365480636200,17.57663623046875,1.0114288330078125,0.00286865234375,0.0097198486328125
1672829365490684200,17.58668408203125,1.0078125,0.0027618408203125,0.003143310546875
1672829365500733200,17.596733154296874,1.00982666015625,0.0020904541015625,0.0028839111328125
1672829365510781200,17.60678125,1.007293701171875,0.0023345947265625,-0.000091552734375
1672829365520829200,17.6168291015625,1.0110626220703125,0.003082275390625,0.005462646484375
1672829365530877200,17.626877197265625,1.0099639892578125,0.0034027099609375,0.0094757080078125
1672829365540926200,17.63692626953125,1.01092529296875,0.00445556640625,0.015472412109375
1672829365550974200,17.64697412109375,1.0119781494140625,0.0047454833984375,0.0175323486328125
1672829365561022200,17.657022216796875,1.009735107421875,0.004486083984375,0.0135040283203125
1672829365571070200,17.6670703125,1.010162353515625,0.0038909912109375,0.0094451904296875
1672829365581119200,17.677119140625,1.0109100341796875,0.0020751953125,0.005340576171875
1672829365591167200,17.687167236328126,1.008758544921875,0.0008697509765625,0.0040283203125
1672829365601215200,17.69721533203125,1.009552001953125,0.0015716552734375,0.0058135986328125
1672829365611263200,17.70726318359375,1.0087738037109375,0.003936767578125,0.011260986328125
1672829365621312300,17.717312255859376,1.0152587890625,0.005584716796875,0.01531982421875
1672829365631360300,17.7273603515625,1.0130157470703125,0.0070037841796875,0.0161285400390625
1672829365641408300,17.737408203125,1.0065460205078125,0.0063934326171875,0.0095672607421875
1672829365651456000,17.7474560546875,1.0071563720703125,0.00579833984375,0.0050201416015625
1672829365661505300,17.75750537109375,1.0133056640625,0.0015411376953125,0.0093536376953125
1672829365671553000,17.767552978515624,1.011810302734375,0.001983642578125,0.00457763671875
1672829365681601300,17.777601318359373,1.0093231201171875,0.0019378662109375,0.009063720703125
1672829365691649300,17.787649169921874,1.0099029541015625,0.002593994140625,0.009796142578125
1672829365701698300,17.7976982421875,1.0107421875,0.0036163330078125,0.0126495361328125
1672829365711746300,17.807746337890624,1.009307861328125,0.004486083984375,0.0128631591796875
1672829365721794000,17.8177939453125,1.0103912353515625,0.0048370361328125,0.0096893310546875
1672829365731842300,17.82784228515625,1.009063720703125,0.004425048828125,0.0081329345703125
1672829365741891000,17.83789111328125,1.010955810546875,0.0025787353515625,0.0085296630859375
1672829365751939300,17.847939208984375,1.0111846923828125,0.002655029296875,0.009185791015625
1672829365761987300,17.8579873046875,1.0100860595703125,0.002960205078125,0.01025390625
1672829365772035300,17.868035400390625,1.0083160400390625,0.004180908203125,0.011199951171875
1672829365782084400,17.87808447265625,1.0095977783203125,0.0050811767578125,0.0115814208984375
1672829365792132400,17.88813232421875,1.0098876953125,0.0040435791015625,0.010650634765625
1672829365802180400,17.898180419921875,1.01025390625,0.002227783203125,0.00823974609375
1672829365812228400,17.908228271484376,1.01019287109375,0.0022125244140625,0.0081787109375
1672829365822277400,17.91827734375,1.0098724365234375,0.0032501220703125,0.008087158203125
1672829365832325400,17.928325439453126,1.009368896484375,0.004425048828125,0.00860595703125
1672829365842373400,17.938373291015626,1.0066680908203125,0.0049285888671875,0.00689697265625
1672829365852421400,17.94842138671875,1.005462646484375,0.0036468505859375,0.0088043212890625
1672829365862470400,17.958470458984376,1.01409912109375,0.0029144287109375,0.0144500732421875
1672829365872518400,17.968518310546877,1.00958251953125,0.003143310546875,0.00872802734375
1672829365882566400,17.97856640625,1.0111236572265625,0.0020751953125,0.00872802734375
1672829365892614400,17.988614501953126,1.0094757080078125,0.003021240234375,0.0071868896484375
1672829365902662400,17.998662353515623,1.0087890625,0.002716064453125,0.0103302001953125
1672829365912711400,18.00871142578125,1.011627197265625,0.0037841796875,0.012115478515625
1672829365922759200,18.01875927734375,1.0108795166015625,0.003143310546875,0.01263427734375
1672829365932807400,18.028807373046874,1.0112762451171875,0.003143310546875,0.01239013671875
1672829365942855400,18.03885546875,1.0107269287109375,0.0036468505859375,0.00921630859375
1672829365952904400,18.048904541015624,1.0085906982421875,0.003814697265625,0.0069580078125
1672829365962952400,18.058952392578124,1.0110626220703125,0.00286865234375,0.0093231201171875
1672829365973000200,18.069000244140625,1.0116119384765625,0.003204345703125,0.0113067626953125
1672829365983048400,18.07904833984375,1.0096435546875,0.0035247802734375,0.0101318359375
1672829365993097200,18.08909716796875,1.0135345458984375,0.003692626953125,0.01446533203125
1672829366003145500,18.0991455078125,1.008392333984375,0.0064239501953125,0.0095977783203125
1672829366013193500,18.109193359375,1.008087158203125,0.0050811767578125,0.008880615234375
1672829366023241200,18.1192412109375,1.0107879638671875,0.00323486328125,0.008544921875
1672829366033290500,18.12929052734375,1.006866455078125,0.0041351318359375,0.0036163330078125
1672829366043338200,18.139338134765627,1.00469970703125,0.003021240234375,0.00390625
1672829366053386500,18.149386474609376,1.0093841552734375,0.001922607421875,0.0066986083984375
1672829366063434200,18.159434326171876,1.009735107421875,0.00323486328125,0.007904052734375
1672829366073483500,18.1694833984375,1.0078887939453125,0.003814697265625,0.008758544921875
1672829366083531300,18.17953125,1.01239013671875,0.0034637451171875,0.0139007568359375
1672829366093579300,18.189579345703127,1.0136566162109375,0.003997802734375,0.014190673828125
1672829366103627500,18.19962744140625,1.0123138427734375,0.0040740966796875,0.011962890625
1672829366113676300,18.20967626953125,1.00921630859375,0.00201416015625,0.0092315673828125
1672829366123724500,18.219724609375,1.008819580078125,0.002655029296875,0.007843017578125
1672829366133772300,18.229772216796874,1.011932373046875,0.002532958984375,0.0078125
1672829366143820300,18.2398203125,1.0073394775390625,0.0040740966796875,0.005645751953125
1672829366153869300,18.249869384765624,1.0114898681640625,0.003753662109375,0.0084228515625
1672829366163917300,18.259917236328125,1.009521484375,0.004180908203125,0.0074310302734375
1672829366173965600,18.269965576171874,1.0075225830078125,0.0037078857421875,0.0066986083984375
1672829366184013300,18.280013427734374,1.0088043212890625,0.0032958984375,0.0081329345703125
1672829366194062300,18.290062255859375,1.011688232421875,0.0034637451171875,0.010101318359375
1672829366204110300,18.3001103515625,1.014495849609375,0.0027923583984375,0.0123291015625
1672829366214158300,18.310158447265625,1.0093231201171875,0.0027618408203125,0.009002685546875
1672829366224206300,18.320206298828126,1.0064697265625,0.003021240234375,0.00714111328125
1672829366234255400,18.33025537109375,1.0094451904296875,0.002716064453125,0.0096588134765625
1672829366244303400,18.340303466796875,1.0088958740234375,0.00396728515625,0.0077972412109375
1672829366254351400,18.350351318359376,1.0102386474609375,0.0040130615234375,0.0087738037109375
1672829366264399400,18.3603994140625,1.01007080078125,0.0028839111328125,0.008056640625
1672829366274448400,18.370448486328126,1.010162353515625,0.0025482177734375,0.0076446533203125
1672829366284496400,18.380496337890627,1.0108642578125,0.00299072265625,0.009033203125
1672829366294544400,18.39054443359375,1.0106964111328125,0.0035400390625,0.0101318359375
1672829366304592400,18.40059228515625,1.01104736328125,0.0038604736328125,0.0104522705078125
1672829366314641200,18.41064111328125,1.008941650390625,0.0039825439453125,0.010284423828125
1672829366324689400,18.420689453125,1.0096435546875,0.0048065185546875,0.009246826171875
1672829366334737400,18.4307373046875,1.01092529296875,0.0384368896484375,0.00518798828125
1672829366344785400,18.440785400390624,1.006683349609375,0.071990966796875,-0.0137481689453125
1672829366354834400,18.45083447265625,1.0108489990234375,0.056396484375,-0.041168212890625
1672829366364882200,18.460882080078125,1.0102081298828125,0.053924560546875,-0.064178466796875
1672829366374930400,18.470930419921874,1.0104217529296875,0.053009033203125,-0.0489044189453125
1672829366384978200,18.480978271484375,1.00994873046875,0.040313720703125,-0.0263519287109375
1672829366395027500,18.49102734375,1.010009765625,0.0291748046875,-0.004150390625
1672829366405075200,18.5010751953125,1.0094451904296875,0.0132904052734375,0.013946533203125
1672829366415123500,18.51112353515625,1.0090484619140625,0.0023651123046875,0.0174102783203125
1672829366425171500,18.52117138671875,1.0108795166015625,-0.0097503662109375,0.0294342041015625
1672829366435220200,18.53122021484375,1.0070953369140625,-0.0189971923828125,0.033966064453125
1672829366445268500,18.5412685546875,1.0109100341796875,-0.0181884765625,0.0330352783203125
1672829366455316200,18.551316162109377,1.009674072265625,-0.015411376953125,0.0357208251953125
1672829366465364500,18.561364501953125,1.010711669921875,-0.0055084228515625,0.02545166015625
1672829366475413200,18.571413330078126,1.0120391845703125,-0.001068115234375,0.0110015869140625
1672829366485461200,18.581461181640623,1.0092010498046875,0.0111083984375,0.0044708251953125
1672829366495509500,18.591509521484376,1.0101318359375,0.0212554931640625,-0.0060272216796875
1672829366505557200,18.60155712890625,1.01116943359375,0.0213775634765625,-0.00640869140625
1672829366515606500,18.6116064453125,1.008575439453125,0.0155029296875,-0.0085601806640625
1672829366525654300,18.621654296875,1.0119476318359375,0.0134735107421875,-0.0112762451171875
1672829366535702500,18.63170263671875,1.010040283203125,0.017364501953125,-0.0088958740234375
1672829366545750300,18.641750244140624,1.0107421875,0.025238037109375,-0.0075225830078125
1672829366555799300,18.65179931640625,1.014312744140625,0.029998779296875,-0.0119781494140625
1672829366565847300,18.661847412109374,1.0023193359375,0.0230560302734375,-0.0113372802734375
1672829366575895300,18.671895263671875,1.013336181640625,0.02301025390625,-0.0164337158203125
1672829366585943600,18.681943603515624,1.0131683349609375,0.02984619140625,-0.01763916015625
1672829366595992300,18.691992431640625,1.007293701171875,0.0345001220703125,-0.0150299072265625
1672829366606040300,18.702040283203125,1.0142822265625,0.0375213623046875,-0.012725830078125
1672829366616088300,18.71208837890625,0.9984283447265625,0.0250396728515625,0.00592041015625
1672829366626136300,18.72213623046875,1.0129852294921875,0.02703857421875,0.0105438232421875
1672829366636185300,18.732185302734376,1.01220703125,0.0172119140625,0.0248870849609375
1672829366646233300,18.7422333984375,1.00750732421875,0.0093536376953125,0.0279998779296875
1672829366656281300,18.75228125,1.0092010498046875,0.0081329345703125,0.0323486328125
1672829366666329300,18.762329345703126,1.0130767822265625,0.0065460205078125,0.048828125
1672829366676378400,18.77237841796875,1.00634765625,0.014312744140625,0.0504913330078125
1672829366686426400,18.78242626953125,1.01300048828125,0.0146484375,0.050018310546875
1672829366696474400,18.792474365234376,1.0054168701171875,0.0082550048828125,0.0426025390625
1672829366706522400,18.8025224609375,1.0272064208984375,0.0045013427734375,0.02301025390625
1672829366716571400,18.8125712890625,1.03363037109375,0.031585693359375,-0.0175628662109375
1672829366726619100,18.822619140625,1.0001220703125,0.068572998046875,-0.0306243896484375
1672829366736667400,18.83266748046875,0.9632110595703125,-0.0629425048828125,-0.0409393310546875
1672829366746715400,18.84271533203125,1.0188446044921875,-0.0673065185546875,0.0363922119140625
1672829366756764200,18.85276416015625,0.998992919921875,0.017669677734375,0.0906982421875
1672829366766813200,18.862813232421875,1.020416259765625,0.027587890625,0.157958984375
1672829366776861200,18.872861083984375,1.0094451904296875,0.0408172607421875,0.028656005859375
1672829366786909400,18.882909423828124,1.00811767578125,0.0275726318359375,0.0093536376953125
1672829366796957200,18.892957275390625,1.016204833984375,0.0222320556640625,-0.0012054443359375
1672829366807006200,18.903006103515626,1.0148162841796875,0.0265045166015625,0.010345458984375
1672829366817054200,18.91305419921875,1.0060272216796875,0.0330963134765625,0.016357421875
1672829366827102200,18.923102294921875,1.0062713623046875,0.0359954833984375,0.000091552734375
1672829366837150200,18.933150146484376,1.006805419921875,0.029449462890625,-0.0239410400390625
1672829366847199200,18.94319921875,1.01458740234375,0.007598876953125,-0.0538787841796875
1672829366857247200,18.953247314453126,1.0081939697265625,-0.0145416259765625,-0.0517578125
1672829366867295200,18.963295166015627,1.0117950439453125,-0.0453643798828125,-0.02655029296875
1672829366877343200,18.97334326171875,1.016265869140625,-0.063812255859375,0.0121612548828125
1672829366887392300,18.983392333984376,1.00872802734375,-0.0560150146484375,0.04473876953125
1672829366897440300,18.993440185546874,1.0115814208984375,-0.0386199951171875,0.05780029296875
1672829366907488000,19.003488037109374,1.0074920654296875,-0.0123138427734375,0.0572052001953125
1672829366917536300,19.013536376953127,1.01092529296875,0.010772705078125,0.0589141845703125
1672829366927585000,19.0235849609375,1.003448486328125,0.02178955078125,0.048858642578125
1672829366937633300,19.03363330078125,1.013580322265625,0.030548095703125,0.044158935546875
1672829366947681300,19.043681396484374,1.0125274658203125,0.0409393310546875,0.046539306640625
1672829366957729300,19.053729248046874,1.0094757080078125,0.0460357666015625,0.03875732421875
1672829366967778300,19.0637783203125,1.007904052734375,0.0477142333984375,0.0248260498046875
1672829366977826000,19.073825927734376,1.009521484375,0.0418548583984375,0.016845703125
1672829366987874300,19.083874267578125,1.009063720703125,0.0257720947265625,0.0160369873046875
1672829366997922300,19.09392236328125,1.0122222900390625,0.0070343017578125,0.019622802734375
1672829367007971300,19.103971435546875,1.0095367431640625,0.0038604736328125,0.0153656005859375
1672829367018019000,19.11401904296875,1.013031005859375,0.006500244140625,0.0175018310546875
1672829367028067000,19.124067138671876,1.007354736328125,0.01104736328125,0.0128631591796875
1672829367038115300,19.134115234375,1.008148193359375,0.008941650390625,0.010345458984375
1672829367048164000,19.1441640625,1.0106201171875,0.00201416015625,0.001251220703125
1672829367058212400,19.15421240234375,1.009613037109375,-0.0058441162109375,-0.0029754638671875
1672829367068260000,19.164260009765623,1.00994873046875,-0.009063720703125,-0.0069122314453125
1672829367078308000,19.17430810546875,1.01043701171875,-0.0090179443359375,-0.0152740478515625
1672829367088357000,19.184357177734373,1.0098876953125,-0.001922607421875,-0.0181121826171875
1672829367098405000,19.194405029296874,1.01239013671875,0.0088958740234375,-0.01104736328125
1672829367108453400,19.204453369140627,1.011993408203125,0.0278778076171875,-0.0044708251953125
1672829367118501000,19.214501220703124,1.0104522705078125,0.0263671875,0.01708984375
1672829367128550400,19.22455029296875,1.011505126953125,0.0167236328125,0.037139892578125
1672829367138598100,19.23459814453125,1.008331298828125,0.0224609375,0.01898193359375
1672829367148646100,19.244646240234374,1.0100555419921875,0.022430419921875,-0.0036773681640625
1672829367158694100,19.254694091796875,1.007293701171875,0.022735595703125,-0.02569580078125
1672829367168743200,19.2647431640625,1.010894775390625,0.015350341796875,-0.0348663330078125
1672829367178791200,19.274791259765625,1.010467529296875,0.01226806640625,-0.0351715087890625
1672829367188839200,19.284839111328125,1.0113983154296875,0.0126800537109375,-0.03094482421875
1672829367198887200,19.29488720703125,1.00927734375,0.01727294921875,-0.0240631103515625
1672829367208936200,19.304936279296875,1.0103302001953125,0.011749267578125,-0.012451171875
1672829367218984200,19.314984130859376,1.00909423828125,0.003021240234375,-0.0067138671875
1672829367229032200,19.3250322265625,1.0125885009765625,0.00555419921875,0.0074462890625
1672829367239080200,19.335080078125,1.008544921875,0.004852294921875,0.016326904296875
1672829367249129200,19.345129150390626,1.0134429931640625,0.012481689453125,0.0292816162109375
1672829367259177200,19.35517724609375,1.00738525390625,0.016754150390625,0.037445068359375
1672829367269225200,19.36522509765625,1.00958251953125,0.0159912109375,0.0348968505859375
1672829367279273200,19.375273193359376,1.008575439453125,0.0217132568359375,0.0336151123046875
1672829367289321200,19.3853212890625,1.0126953125,0.0215911865234375,0.0382843017578125
1672829367299370200,19.395370361328126,1.0095367431640625,0.0166778564453125,0.0307464599609375
1672829367309418200,19.405418212890623,1.00946044921875,0.0131378173828125,0.021881103515625
1672829367319466200,19.41546630859375,1.0103759765625,0.00482177734375,0.02227783203125
1672829367329514200,19.42551416015625,1.0111846923828125,0.0059967041015625,0.025390625
1672829367339563000,19.43556298828125,1.0105133056640625,0.0133209228515625,0.021087646484375
1672829367349611300,19.445611328125,1.0075531005859375,0.017730712890625,0.0194091796875
1672829367359659300,19.4556591796875,1.0119476318359375,0.0116119384765625,0.0205230712890625
1672829367369707000,19.46570703125,1.010498046875,0.0078277587890625,0.0211639404296875
1672829367379756300,19.47575634765625,1.00482177734375,-0.0005340576171875,0.012603759765625
1672829367389804000,19.485803955078126,1.010162353515625,-0.0079345703125,0.0093536376953125
1672829367399852300,19.495852294921875,1.01300048828125,-0.0089263916015625,0.0016937255859375
1672829367409900300,19.505900390625,1.0112762451171875,-0.0002288818359375,-0.0075225830078125
1672829367419949300,19.51594921875,1.0078277587890625,0.00958251953125,-0.0069580078125
1672829367429997300,19.525997314453125,1.01123046875,0.0102996826171875,0.002532958984375
1672829367440045000,19.536045166015626,1.0084228515625,0.0137176513671875,0.0052947998046875
1672829367450093300,19.54609326171875,1.00872802734375,0.0101776123046875,0.00506591796875
1672829367460142000,19.55614208984375,1.0091400146484375,0.009063720703125,0.0063323974609375
1672829367470190300,19.5661904296875,1.010528564453125,0.0076904296875,0.0037841796875
1672829367480238000,19.576238037109373,1.0094146728515625,0.0106048583984375,-0.0018768310546875
1672829367490286000,19.5862861328125,1.0103759765625,0.0156097412109375,0.0033416748046875
1672829367500335000,19.596335205078127,1.009979248046875,0.010711669921875,0.006683349609375
1672829367510383000,19.606383056640624,1.009185791015625,0.0080413818359375,0.00286865234375
1672829367520431400,19.616431396484376,1.013824462890625,0.0065155029296875,0.012969970703125
1672829367530479000,19.62647900390625,1.007171630859375,0.0161590576171875,0.0167694091796875
1672829367540528400,19.6365283203125,1.00946044921875,0.02020263671875,0.016632080078125
1672829367550576000,19.646576171875,1.0081939697265625,0.0286712646484375,0.00372314453125
1672829367560624000,19.6566240234375,1.012725830078125,0.02960205078125,-0.0039825439453125
1672829367570672400,19.66667236328125,1.0090179443359375,0.0274200439453125,-0.0102691650390625
1672829367580721200,19.67672119140625,1.01141357421875,0.02557373046875,-0.01171875
1672829367590769400,19.686769287109374,1.0093231201171875,0.0275115966796875,-0.0089263916015625
1672829367600817200,19.696817138671875,1.0097808837890625,0.0282745361328125,-0.0026397705078125
1672829367610865200,19.706865234375,1.01239013671875,0.02081298828125,0.00018310546875
1672829367620914200,19.7169140625,1.0082244873046875,0.0225677490234375,-0.0020294189453125
1672829367630962200,19.726962158203126,1.00946044921875,0.02783203125,-0.003570556640625
1672829367641010200,19.73701025390625,1.0083465576171875,0.0337677001953125,-0.0154876708984375
1672829367651058200,19.74705810546875,1.0104827880859375,0.0331268310546875,-0.0227203369140625
1672829367661107200,19.757107177734376,1.0091400146484375,0.0247344970703125,-0.0217132568359375
1672829367671155200,19.7671552734375,1.006927490234375,0.0108795166015625,-0.026092529296875
1672829367681203200,19.777203125,1.01226806640625,0.001220703125,-0.0231475830078125
1672829367691251200,19.787251220703126,1.009368896484375,0.0006256103515625,-0.0219879150390625
1672829367701299200,19.79729931640625,1.00921630859375,0.000274658203125,-0.0109710693359375
1672829367711348200,19.80734814453125,1.011077880859375,0.00311279296875,-0.0042724609375
1672829367721396200,19.817396240234373,1.0107269287109375,0.00445556640625,-0.00152587890625
1672829367731444200,19.8274443359375,1.0106658935546875,0.014739990234375,0.0090789794921875
1672829367741492200,19.8374921875,1.0089111328125,0.0229644775390625,0.0212249755859375
1672829367751540700,19.847540771484375,1.0117340087890625,0.02032470703125,0.0243072509765625
1672829367761588500,19.85758837890625,1.007568359375,0.0149383544921875,0.011688232421875
1672829367771636500,19.867636474609377,1.0079803466796875,0.012725830078125,0.00439453125
1672829367781684700,19.877684814453126,1.009918212890625,0.0077972412109375,0.002410888671875
1672829367791733500,19.8877333984375,1.0108489990234375,0.005035400390625,0.00927734375
1672829367801781800,19.89778173828125,1.00860595703125,0.0062103271484375,0.0197906494140625
1672829367811829500,19.90782958984375,1.0090789794921875,0.0053558349609375,0.03460693359375
1672829367821877800,19.917877685546873,1.010650634765625,0.00537109375,0.039398193359375
1672829367831926500,19.927926513671874,1.0087432861328125,0.00335693359375,0.0338134765625
1672829367841974500,19.937974609375,1.010833740234375,0.000030517578125,0.0198516845703125
1672829367852022500,19.9480224609375,1.0101165771484375,-0.00201416015625,0.010467529296875
1672829367862070500,19.958070556640624,1.0120849609375,-0.000091552734375,0.01080322265625
1672829367872119600,19.96811962890625,1.0095977783203125,0.0070648193359375,0.015625
1672829367882167600,19.97816748046875,1.0065155029296875,0.0194549560546875,0.02447509765625
1672829367892215600,19.988215576171875,1.00927734375,0.0321807861328125,0.0354156494140625
1672829367902263600,19.998263671875,1.01043701171875,0.0329437255859375,0.0343780517578125
1672829367912312600,20.0083125,1.011566162109375,0.0231781005859375,0.0238189697265625
1672829367922360600,20.018360595703125,1.0106353759765625,0.0177459716796875,0.011810302734375
1672829367932408600,20.02840869140625,1.0096588134765625,0.0137939453125,0.0017852783203125
1672829367942456600,20.03845654296875,1.01202392578125,0.01531982421875,0.00103759765625
1672829367952505600,20.048505615234376,1.0078582763671875,0.017181396484375,0.0021514892578125
1672829367962553600,20.0585537109375,1.011260986328125,0.017791748046875,0.002655029296875
1672829367972601600,20.0686015625,1.0087890625,0.018280029296875,-0.000823974609375
1672829367982649600,20.078649658203126,1.0086822509765625,0.01702880859375,-0.0012969970703125
1672829367992698600,20.08869873046875,1.0099334716796875,0.015960693359375,0.00054931640625
1672829368002746600,20.09874658203125,1.008148193359375,0.0152587890625,0.00079345703125
1672829368012794400,20.10879443359375,1.01361083984375,0.01513671875,0.00408935546875
1672829368022842600,20.118842529296874,1.0087890625,0.016021728515625,0.0039825439453125
1672829368032890600,20.128890625,1.0111083984375,0.0175628662109375,0.0031280517578125
1672829368042939600,20.138939697265624,1.0107269287109375,0.016845703125,0.0029296875
1672829368052987600,20.148987548828124,1.0113677978515625,0.0166778564453125,-0.0009765625
1672829368063035400,20.159035400390625,1.0085906982421875,0.0163421630859375,-0.000762939453125
1672829368073083600,20.169083740234374,1.009033203125,0.014739990234375,-0.000885009765625
1672829368083132400,20.17913232421875,1.0096282958984375,0.0148162841796875,-0.00244140625
1672829368093180700,20.1891806640625,1.0089111328125,0.016754150390625,-0.000244140625
1672829368103228700,20.199228759765624,1.0095977783203125,0.0183868408203125,-0.003021240234375
1672829368113276400,20.2092763671875,1.0099334716796875,0.019287109375,-0.001708984375
1672829368123325700,20.21932568359375,1.0092010498046875,0.0188140869140625,-0.002410888671875
1672829368133373400,20.22937353515625,1.01019287109375,0.0168914794921875,-0.0041961669921875
1672829368143421700,20.239421630859376,1.0065155029296875,0.0160675048828125,-0.0010528564453125
1672829368153469400,20.249469482421876,1.0114288330078125,0.0157318115234375,-0.0016021728515625
1672829368163518700,20.259518798828125,1.010467529296875,0.0140838623046875,0.0017547607421875
1672829368173566500,20.26956640625,1.0087738037109375,0.015777587890625,-0.0009918212890625
1672829368183614500,20.279614501953127,1.0101776123046875,0.0168914794921875,-0.00030517578125
1672829368193662700,20.289662841796876,1.0091552734375,0.0164031982421875,-0.00079345703125
1672829368203711500,20.29971142578125,1.0117645263671875,0.016754150390625,-0.0002593994140625
1672829368213756700,20.309756591796877,1.0093536376953125,0.0166473388671875,0.0000762939453125
1672829368223804700,20.3198046875,1.0111846923828125,0.0160369873046875,-0.0013275146484375
1672829368233852700,20.329852783203126,1.0111541748046875,0.017120361328125,-0.000152587890625
1672829368243900400,20.339900390625,1.0101318359375,0.017669677734375,0.001068115234375
1672829368253949700,20.34994970703125,1.0096282958984375,0.01885986328125,-0.0069580078125
1672829368263997400,20.35999755859375,1.007110595703125,0.016357421875,0.0003662109375
1672829368274045700,20.370045654296874,1.0111083984375,0.0155487060546875,0.0030975341796875
1672829368284093700,20.38009375,1.0089263916015625,0.0159454345703125,-0.0011444091796875
1672829368294142500,20.390142578125,1.009979248046875,0.0151214599609375,-0.0012969970703125
1672829368304190700,20.400190673828124,1.0097198486328125,0.0161285400390625,-0.0013275146484375
1672829368314238500,20.410238525390625,1.008087158203125,0.0172882080078125,-0.0006866455078125
1672829368324286700,20.42028662109375,1.0099334716796875,0.0179901123046875,-0.0001983642578125
1672829368334335500,20.43033544921875,1.010009765625,0.018768310546875,-0.0006561279296875
1672829368344383700,20.4403837890625,1.011077880859375,0.0169525146484375,-0.000732421875
1672829368354431700,20.450431640625,1.0084686279296875,0.01507568359375,-0.0006866455078125
1672829368364479500,20.4604794921875,1.010009765625,0.0150909423828125,0.00091552734375
1672829368374528800,20.47052880859375,1.009735107421875,0.0159912109375,-0.0015716552734375
1672829368384576500,20.480576416015627,1.0096893310546875,0.016815185546875,-0.0016937255859375
1672829368394624800,20.490624755859375,1.0110321044921875,0.017486572265625,-0.00067138671875
1672829368404672500,20.500672607421876,1.0103607177734375,0.0189361572265625,-0.00079345703125
1672829368414721500,20.510721435546873,1.00836181640625,0.017181396484375,-0.0003662109375
1672829368424769500,20.52076953125,1.00823974609375,0.0157928466796875,-0.0004119873046875
1672829368434817500,20.530817626953127,1.0100860595703125,0.0153045654296875,-0.0002593994140625
1672829368444865800,20.54086572265625,1.0101470947265625,0.0162506103515625,-0.0008544921875
1672829368454914600,20.55091455078125,1.01043701171875,0.0177001953125,0.000244140625
1672829368464962600,20.560962646484374,1.0086822509765625,0.0197601318359375,-0.0011749267578125
1672829368475010600,20.571010498046874,1.0059356689453125,0.0196380615234375,-0.003814697265625
1672829368485058600,20.58105859375,1.010223388671875,0.01763916015625,-0.0009613037109375
1672829368495107600,20.591107666015624,1.0092315673828125,0.0146636962890625,0.0000762939453125
1672829368505155600,20.601155517578125,1.0119171142578125,0.0128631591796875,0.0047607421875
1672829368515203800,20.611203857421874,1.0094146728515625,0.0122833251953125,0.003021240234375
1672829368525251600,20.62125146484375,1.0107269287109375,0.0201263427734375,-0.0032806396484375
1672829368535300600,20.631300537109375,1.008392333984375,0.016998291015625,-0.003082275390625
1672829368545348600,20.6413486328125,1.0120697021484375,0.0183868408203125,0.0012359619140625
1672829368555396600,20.651396728515625,1.0116119384765625,0.0204315185546875,0.0009002685546875
1672829368565444600,20.661444580078125,1.009979248046875,0.0186920166015625,-0.000518798828125
1672829368575492600,20.67149267578125,1.0093841552734375,0.01312255859375,0.0007476806640625
1672829368585541400,20.681541259765623,1.008880615234375,0.0134124755859375,-0.0000152587890625
1672829368595589600,20.691589599609376,1.007720947265625,0.01165771484375,0.002777099609375
1672829368605637600,20.7016376953125,1.01397705078125,0.016693115234375,0.000244140625
1672829368615685600,20.711685546875,1.0094451904296875,0.0204315185546875,-0.00079345703125
1672829368625734700,20.721734619140626,1.013641357421875,0.021026611328125,-0.000946044921875
1672829368635782700,20.73178271484375,1.0082550048828125,0.0199127197265625,-0.0003509521484375
1672829368645830700,20.74183056640625,1.008026123046875,0.01629638671875,0.000457763671875
1672829368655878700,20.751878662109377,1.0108184814453125,0.0125732421875,0.005126953125
1672829368665927700,20.761927734375,1.00921630859375,0.0120697021484375,0.0045166015625
1672829368675975700,20.7719755859375,1.011566162109375,0.0142822265625,0.0030975341796875
1672829368686023700,20.782023681640624,1.010589599609375,0.0181884765625,0.003265380859375
1672829368696071700,20.79207177734375,1.0091094970703125,0.0208282470703125,-0.0029754638671875
1672829368706120400,20.802120361328125,1.0091552734375,0.02099609375,-0.0028228759765625
1672829368716168700,20.812168701171874,1.0084228515625,0.0175933837890625,-0.00030517578125
1672829368726216400,20.822216552734375,1.011932373046875,0.0153350830078125,0.00067138671875
1672829368736264700,20.8322646484375,1.01068115234375,0.012664794921875,0.00189208984375
1672829368746313500,20.8423134765625,1.0082855224609375,0.013702392578125,0.001617431640625
1672829368756362200,20.8523623046875,1.0076141357421875,0.0139007568359375,0.0065460205078125
1672829368766410200,20.86241015625,1.00213623046875,-0.0077667236328125,0.045654296875
1672829368776458200,20.872458251953127,1.025543212890625,0.005340576171875,-0.016143798828125
1672829368786507000,20.882507080078124,1.001129150390625,0.06683349609375,-0.0369110107421875
1672829368796555300,20.89255517578125,1.007965087890625,0.0131378173828125,0.0048980712890625
1672829368806603300,20.902603271484374,1.01336669921875,0.013214111328125,0.000701904296875
1672829368816651000,20.912651123046874,1.0114288330078125,0.0142669677734375,0.001739501953125
1672829368826700300,20.9227001953125,1.00909423828125,0.0160064697265625,0.0018768310546875
1672829368836748000,20.932748046875,1.0093994140625,0.01751708984375,0.0017852783203125
1672829368846796300,20.94279638671875,1.007537841796875,0.0169830322265625,0.000152587890625
1672829368856844300,20.95284423828125,1.0128173828125,0.0166015625,-0.000274658203125
1672829368866892300,20.962892333984374,1.0061492919921875,0.01617431640625,0.000274658203125
1672829368876941300,20.97294140625,1.012786865234375,0.0157470703125,0.002410888671875
1672829368886989000,20.982989013671876,1.0114593505859375,0.01544189453125,0.0019073486328125
1672829368897039000,20.9930390625,1.0086669921875,0.0175018310546875,0.0015411376953125
1672829368907087400,21.00308740234375,1.0117950439453125,0.0186309814453125,0.00067138671875
1672829368917136100,21.01313623046875,1.01031494140625,0.0183563232421875,0.0015869140625
1672829368927184400,21.023184326171876,1.01202392578125,0.016876220703125,0.0032958984375
1672829368937232100,21.033232177734376,1.0092010498046875,0.0156402587890625,0.00250244140625
1672829368947280100,21.043280029296874,1.0100555419921875,0.0139923095703125,0.0019989013671875
1672829368957329200,21.0533291015625,1.0081939697265625,0.0140838623046875,0.0005340576171875
1672829368967377200,21.063377197265623,1.0102386474609375,0.0158233642578125,0.000274658203125
1672829368977425400,21.07342529296875,1.0091552734375,0.018310546875,0.000946044921875
1672829368987473200,21.08347314453125,1.0107269287109375,0.01934814453125,0.0003662109375
1672829368997522200,21.093522216796874,1.0120697021484375,0.0188751220703125,0.001373291015625
1672829369007570200,21.103570068359375,1.0099945068359375,0.01739501953125,0.0015869140625
1672829369017618200,21.1136181640625,1.0112457275390625,0.0152130126953125,0.001373291015625
1672829369027666400,21.12366650390625,1.00823974609375,0.013427734375,0.0009918212890625
1672829369037715200,21.133715087890625,1.0089874267578125,0.0145111083984375,0.000335693359375
1672829369047763200,21.14376318359375,1.0103759765625,0.0162811279296875,0.000335693359375
1672829369057811200,21.153811279296875,1.0098724365234375,0.017730712890625,0.0001068115234375
1672829369067859200,21.163859130859375,1.0104522705078125,0.0170440673828125,0.0012359619140625
1672829369077908200,21.173908203125,1.008453369140625,0.0164642333984375,0.0003204345703125
1672829369087956200,21.183956298828125,1.0101318359375,0.0159912109375,0.0012054443359375
1672829369098004200,21.194004150390626,1.0089263916015625,0.0151824951171875,0.001373291015625
1672829369108052200,21.20405224609375,1.0106201171875,0.016143798828125,0.0016937255859375
1672829369118101000,21.21410107421875,1.0104522705078125,0.0162506103515625,0.0018768310546875
1672829369128149200,21.224149169921876,1.010955810546875,0.0178375244140625,0.0009307861328125
1672829369138197200,21.234197265625,1.0105438232421875,0.01806640625,0.0009002685546875
1672829369148245200,21.244245361328126,1.00994873046875,0.017303466796875,0.00274658203125
1672829369158293200,21.254293212890627,1.010498046875,0.016021728515625,0.00054931640625
1672829369168342000,21.264342041015624,1.008880615234375,0.014739990234375,0.001739501953125
1672829369178390300,21.274390380859376,1.0097198486328125,0.01519775390625,0.002471923828125
1672829369188438300,21.284438232421873,1.01007080078125,0.01568603515625,0.00146484375
1672829369198486300,21.294486328125,1.01068115234375,0.0162506103515625,0.000457763671875
1672829369208535300,21.304535400390623,1.010345458984375,0.018096923828125,0.00006103515625
1672829369218583000,21.3145830078125,1.0103607177734375,0.0186767578125,-0.00079345703125
1672829369228631300,21.32463134765625,1.009246826171875,0.0190582275390625,-0.0009002685546875
1672829369238679300,21.33467919921875,1.008087158203125,0.017669677734375,-0.0006561279296875
1672829369248728300,21.344728271484374,1.0093231201171875,0.0157623291015625,0.0009765625
1672829369258776000,21.354776123046875,1.0098724365234375,0.0144195556640625,0.0001373291015625
1672829369268824300,21.36482421875,1.0091400146484375,0.01531982421875,0.0009918212890625
1672829369278872300,21.374872314453125,1.01123046875,0.01611328125,0.0006256103515625
1672829369288921000,21.384921142578126,1.010528564453125,0.017730712890625,0.0001373291015625
1672829369298969300,21.39496923828125,1.009521484375,0.017578125,0.00018310546875
1672829369309017000,21.40501708984375,1.009429931640625,0.0171966552734375,-0.000579833984375
1672829369319065300,21.4150654296875,1.011016845703125,0.016571044921875,0.0012969970703125
1672829369329114000,21.425114013671877,1.0107574462890625,0.0157928466796875,0.0018768310546875
1672829369339162000,21.435162109375,1.00927734375,0.0150299072265625,0.0017547607421875
1672829369349210400,21.44521044921875,1.0087890625,0.015380859375,0.000732421875
1672829369359258000,21.455258056640623,1.0096435546875,0.0170135498046875,-0.0006103515625
1672829369369307400,21.465307373046876,1.009521484375,0.0177764892578125,-0.0006866455078125
1672829369379355100,21.475355224609373,1.01025390625,0.017486572265625,-0.000579833984375
1672829369389403400,21.4854033203125,1.0095977783203125,0.016815185546875,0.0018157958984375
1672829369399451100,21.495451171875,1.0093536376953125,0.015960693359375,0.0016326904296875
1672829369409499100,21.5054990234375,1.0099639892578125,0.014862060546875,0.001556396484375
1672829369419548200,21.515548095703124,1.00872802734375,0.015350341796875,-0.0003662109375
1672829369429596200,21.52559619140625,1.010101318359375,0.0152130126953125,0.002197265625
1672829369439644400,21.53564453125,1.010498046875,0.017547607421875,0.00103759765625
1672829369449692200,21.545692138671875,1.0113983154296875,0.0177459716796875,0.001617431640625
1672829369459741200,21.5557412109375,1.0101318359375,0.017364501953125,0.0008392333984375
1672829369469789200,21.5657890625,1.0086212158203125,0.0167388916015625,0.0004730224609375
1672829369479837200,21.575837158203125,1.0109710693359375,0.0159454345703125,0.0016937255859375
1672829369489885400,21.585885498046874,1.011138916015625,0.01617431640625,0.0018157958984375
1672829369499934200,21.595934326171875,1.0093841552734375,0.0166778564453125,0.0022125244140625
1672829369509982200,21.605982177734376,1.009521484375,0.0173797607421875,0.0005645751953125
1672829369520030200,21.6160302734375,1.0093536376953125,0.0169525146484375,0.00048828125
1672829369530078200,21.626078125,1.01055908203125,0.0171661376953125,0.001373291015625
1672829369540127200,21.636127197265626,1.0101318359375,0.0156402587890625,0.001373291015625
1672829369550175200,21.64617529296875,1.00994873046875,0.0153350830078125,0.0026702880859375
1672829369560223200,21.65622314453125,1.009429931640625,0.0157928466796875,0.0025787353515625
1672829369570271200,21.666271240234376,1.0085601806640625,0.01611328125,0.0013275146484375
1672829369580320000,21.676320068359374,1.009521484375,0.016754150390625,0.000946044921875
1672829369590368300,21.6863681640625,1.011077880859375,0.017303466796875,0.001434326171875
1672829369600416300,21.696416259765623,1.0112457275390625,0.0180206298828125,0.0021820068359375
1672829369610464300,21.70646435546875,1.0107269287109375,0.0176544189453125,0.00189208984375
1672829369620512300,21.71651220703125,1.009979248046875,0.0162506103515625,0.0005340576171875
1672829369630561000,21.72656103515625,1.0077056884765625,0.01519775390625,0.0008087158203125
1672829369640609300,21.736609375,1.0089263916015625,0.015716552734375,0.0010528564453125
1672829369650657300,21.7466572265625,1.01025390625,0.0160675048828125,0.000518798828125
1672829369660705300,21.756705322265624,1.009857177734375,0.0175628662109375,0.001129150390625
1672829369670754300,21.76675439453125,1.0116119384765625,0.0178375244140625,0.001739501953125
1672829369680802000,21.776802001953126,1.00762939453125,0.01690673828125,0.0002593994140625
1672829369690850300,21.786850341796875,1.010894775390625,0.016357421875,0.0020294189453125
1672829369700898000,21.79689794921875,1.0102081298828125,0.01605224609375,0.0015716552734375
1672829369710947300,21.806947265625,1.0108184814453125,0.0157012939453125,0.0020599365234375
1672829369720995000,21.8169951171875,1.010406494140625,0.01611328125,0.002227783203125
1672829369731043300,21.827043212890626,1.0110626220703125,0.0173187255859375,0.0020294189453125
1672829369741091300,21.83709130859375,1.010833740234375,0.0179901123046875,0.0007171630859375
1672829369751140000,21.84714013671875,1.009857177734375,0.0177764892578125,0.0009002685546875
1672829369761187600,21.8571875,1.00933837890625,0.0168914794921875,0.001556396484375
1672829369771235600,21.867235595703125,1.0106048583984375,0.0158843994140625,0.0028228759765625
1672829369781283300,21.877283447265626,1.0100860595703125,0.014892578125,0.002960205078125
1672829369791332600,21.88733251953125,1.0103912353515625,0.01611328125,0.00067138671875
1672829369801380400,21.89738037109375,1.0097808837890625,0.0158538818359375,0.000701904296875
1672829369811428600,21.9074287109375,1.010528564453125,0.0177154541015625,0.00128173828125
1672829369821476400,21.917476318359373,1.0106658935546875,0.018463134765625,0.00054931640625
1672829369831524400,21.9275244140625,1.0126495361328125,0.0178680419921875,0.003814697265625
1672829369841573400,21.937573486328127,1.00994873046875,0.016510009765625,0.00146484375
1672829369851621400,21.947621337890624,1.003936767578125,0.014617919921875,-0.0055084228515625
1672829369861669600,21.957669677734376,1.018280029296875,0.0133819580078125,0.0070648193359375
1672829369871717400,21.96771728515625,1.0118560791015625,0.015350341796875,-0.001861572265625
1672829369881766700,21.9777666015625,1.006378173828125,0.0176544189453125,-0.0039520263671875
1672829369891814400,21.987814453125,1.005462646484375,0.02130126953125,0.00152587890625
1672829369901862400,21.9978623046875,1.0134429931640625,0.0228118896484375,0.004638671875
1672829369911910700,22.00791064453125,1.008331298828125,0.014404296875,-0.00213623046875
1672829369921959400,22.01795947265625,1.0111236572265625,0.0143890380859375,0.0032196044921875
1672829369932007400,22.02800732421875,1.0080413818359375,0.0130462646484375,-0.0010223388671875
1672829369942055400,22.038055419921875,1.00927734375,0.0139923095703125,-0.0011749267578125
1672829369952103400,22.048103515625,1.0120086669921875,0.017669677734375,0.00616455078125
1672829369962152400,22.05815234375,1.0009765625,0.020294189453125,-0.0103759765625
1672829369972200400,22.068200439453125,1.024383544921875,0.0190277099609375,0.011199951171875
1672829369982248400,22.07824853515625,1.0026397705078125,0.0185699462890625,-0.002960205078125
1672829369992296400,22.08829638671875,1.0111541748046875,0.014923095703125,0.0035247802734375
1672829370002345500,22.098345458984376,1.00823974609375,0.012481689453125,0.0018310546875
1672829370012393500,22.1083935546875,1.011749267578125,0.01361083984375,0.0024566650390625
1672829370022441500,22.11844140625,1.007049560546875,0.015869140625,0.00054931640625
1672829370032489500,22.128489501953126,1.011138916015625,0.0188140869140625,-0.000274658203125
1672829370042537500,22.138537353515623,1.0104827880859375,0.0198516845703125,0.000732421875
1672829370052586500,22.14858642578125,1.00799560546875,0.0189971923828125,0.000701904296875
1672829370062634500,22.158634521484377,1.0123748779296875,0.0166015625,0.0026092529296875
1672829370072682500,22.1686826171875,1.009124755859375,0.0135040283203125,0.003692626953125
1672829370082730500,22.17873046875,1.00982666015625,0.0136871337890625,0.0027923583984375
1672829370092779500,22.188779541015624,1.0042572021484375,0.0162811279296875,0.001129150390625
1672829370102827500,22.19882763671875,1.008148193359375,0.0170135498046875,0.00103759765625
1672829370112875500,22.20887548828125,1.0147247314453125,0.0191497802734375,0.0055999755859375
1672829370122923300,22.21892333984375,0.981536865234375,0.019195556640625,0.002655029296875
1672829370132972500,22.22897265625,1.02587890625,0.0302734375,0.0288543701171875
