time,seconds_elapsed,z,y,x
1672829347961456600,0.05745654296875,-2.889765739440918,5.10978889465332,-3.254634141921997
1672829347971504400,0.06750439453125,-2.5711007118225098,4.68358039855957,-3.6217949390411377
1672829347981552600,0.077552734375,-2.173225164413452,3.9636166095733643,-4.055788040161133
1672829347991601400,0.087601318359375,-1.8904629945755005,3.2566864490509033,-4.51740837097168
1672829348001649700,0.097649658203125,-1.828505039215088,2.8489632606506348,-4.924957752227783
1672829348011697400,0.107697509765625,-1.952505111694336,2.797708749771118,-5.200719833374023
1672829348021745400,0.117745361328125,-2.1362483501434326,2.856142044067383,-5.324263095855713
1672829348031794400,0.12779443359375,-2.1908118724823,3.0790679454803467,-5.308469295501709
1672829348041842400,0.137842529296875,-2.1372439861297607,2.9425673484802246,-5.133212089538574
1672829348051890700,0.147890625,-2.0763816833496094,2.6095259189605713,-4.806988716125488
1672829348061939500,0.157939453125,-2.0873987674713135,2.1693031787872314,-4.344295501708984
1672829348071987700,0.16798779296875,-2.1432507038116455,1.674715280532837,-3.78604793548584
1672829348082035500,0.178035400390625,-2.0979137420654297,1.354611873626709,-3.167485475540161
1672829348092083500,0.18808349609375,-1.834145426750183,1.2514630556106567,-2.503861427307129
1672829348102132500,0.198132568359375,-1.4375791549682617,1.1813322305679321,-1.7971357107162476
1672829348112180500,0.208180419921875,-1.0856554508209229,1.355664849281311,-1.0828399658203125
1672829348122228700,0.218228759765625,-0.850732147693634,1.5742685794830322,-0.3921928107738495
1672829348132276500,0.2282763671875,-0.7211171984672546,1.6499507427215576,0.2380586415529251
1672829348142325500,0.238325439453125,-0.6204691529273987,1.624293327331543,0.7719246745109558
1672829348152373500,0.24837353515625,-0.5592886209487915,1.3652445077896118,1.2065550088882446
1672829348162421500,0.25842138671875,-0.4974939227104187,1.206530213356018,1.555318832397461
1672829348172470500,0.268470458984375,-0.4395155906677246,0.9263968467712402,1.7987719774246216
1672829348182518500,0.2785185546875,-0.3892923593521118,0.7903497815132141,1.9091801643371582
1672829348192566500,0.28856640625,-0.33197420835494995,0.8433341383934021,1.9039050340652466
1672829348202615600,0.298615478515625,-0.31535154581069946,0.895044207572937,1.868606448173523
1672829348212663300,0.308663330078125,-0.3565032482147217,0.9882647395133972,1.8573873043060303
1672829348222711600,0.318711669921875,-0.4278131127357483,0.9573283791542053,1.847455620765686
1672829348232759600,0.328759521484375,-0.5694639682769775,0.6280202269554138,1.7994716167449951
1672829348242808600,0.33880859375,-0.7629317045211792,0.2084522694349289,1.6765514612197876
1672829348252856600,0.348856689453125,-0.9037929773330688,0.046180546283721924,1.492104172706604
1672829348262904300,0.358904296875,-0.8612377643585205,0.03591512516140938,1.224548101425171
1672829348272952600,0.36895263671875,-0.5931123495101929,-0.0312921442091465,0.8551266193389893
1672829348283001300,0.37900146484375,-0.1538902372121811,-0.12310195714235306,0.41425737738609314
1672829348293049600,0.389049560546875,0.2650921046733856,-0.3185385763645172,-0.038354046642780304
1672829348303097600,0.39909765625,0.5296292304992676,-0.5305861234664917,-0.4303814768791199
1672829348313146600,0.409146728515625,0.6045562028884888,-0.5026381015777588,-0.7215132117271423
1672829348323194600,0.419194580078125,0.5294182896614075,-0.368502140045166,-0.8951337337493896
1672829348333242400,0.429242431640625,0.3657225966453552,-0.26809269189834595,-0.9547650814056396
1672829348343290600,0.43929052734375,0.20623332262039185,-0.18714459240436554,-0.9383403062820435
1672829348353339400,0.44933935546875,0.14530633389949799,-0.21763299405574799,-0.8644359707832336
1672829348363387600,0.4593876953125,0.18154102563858032,-0.23230727016925812,-0.7569769024848938
1672829348373435400,0.469435302734375,0.254863440990448,-0.20673559606075287,-0.6180645823478699
1672829348383484700,0.479484619140625,0.39467382431030273,-0.12266972661018372,-0.44852346181869507
1672829348393532400,0.489532470703125,0.5507092475891113,-0.0626058578491211,-0.2687116265296936
1672829348403580400,0.499580322265625,0.685839056968689,-0.016169914975762367,-0.06065748631954193
1672829348413628700,0.509628662109375,0.7905101180076599,0.06597821414470673,0.1808432787656784
1672829348423677400,0.519677490234375,0.8712387681007385,0.22938579320907593,0.4093853831291199
1672829348433725700,0.5297255859375,0.9393270015716553,0.32700181007385254,0.6007604002952576
1672829348443773400,0.5397734375,0.9146714806556702,0.20660217106342316,0.764578104019165
1672829348453822700,0.54982275390625,0.750159502029419,0.17291797697544098,0.8884544968605042
1672829348463870500,0.559870361328125,0.4973165690898895,0.11912745237350464,0.9627199172973633
1672829348473918500,0.56991845703125,0.2236029952764511,0.07053488492965698,0.9620800018310547
1672829348483966500,0.579966552734375,-0.010949852876365185,0.006342850625514984,0.8713356852531433
1672829348494015500,0.590015380859375,-0.11899642646312714,-0.041914161294698715,0.7283210158348083
1672829348504063500,0.6000634765625,-0.09668979048728943,-0.02406565472483635,0.5406826734542847
1672829348514111500,0.610111572265625,-0.005887716542929411,0.038660310208797455,0.3429376482963562
1672829348524160500,0.620160400390625,0.07306036353111267,0.0900992676615715,0.1637660264968872
1672829348534208500,0.63020849609375,0.0558406300842762,-0.02154151163995266,0.025406023487448692
1672829348544256500,0.640256591796875,-0.03682113066315651,-0.1569531261920929,-0.05066637322306633
1672829348554304500,0.650304443359375,-0.12697365880012512,-0.15410861372947693,-0.06410840898752213
1672829348564353500,0.660353515625,-0.18084381520748138,-0.18474774062633514,-0.028025243431329727
1672829348574401500,0.670401611328125,-0.2063467800617218,-0.16643957793712616,0.017377125099301338
1672829348584449500,0.680449462890625,-0.2205803096294403,-0.05886145308613777,0.05474260821938515
1672829348594498600,0.69049853515625,-0.2460281401872635,0.02822045236825943,0.05694184452295303
1672829348604546600,0.700546630859375,-0.31768155097961426,0.2071039229631424,0.018273012712597847
1672829348614594600,0.710594482421875,-0.3939904570579529,0.3412236273288727,-0.0420803427696228
1672829348624642600,0.720642578125,-0.4346923232078552,0.26713716983795166,-0.11401525139808655
1672829348634691600,0.730691650390625,-0.437094509601593,0.11572340130805969,-0.18555042147636414
1672829348644739600,0.740739501953125,-0.3601970672607422,0.030607709661126137,-0.2507379353046417
1672829348654787600,0.75078759765625,-0.21815603971481323,-0.02101154252886772,-0.2971174418926239
1672829348664836400,0.76083642578125,-0.022970829159021378,-0.0714518129825592,-0.2984010577201843
1672829348674884600,0.770884521484375,0.16469387710094452,-0.1545885056257248,-0.24373729526996613
1672829348684932400,0.780932373046875,0.27731388807296753,-0.1340552717447281,-0.13071513175964355
1672829348694980600,0.790980712890625,0.27498576045036316,-0.08925291150808334,-0.0007874967413954437
1672829348705029400,0.801029296875,0.15410780906677246,-0.0141139542683959,0.11050920188426971
1672829348715077400,0.811077392578125,-0.020976921543478966,0.04309554025530815,0.19079631567001343
1672829348725125600,0.821125732421875,-0.15400899946689606,0.08655619621276855,0.2308875471353531
1672829348735174700,0.831174560546875,-0.19444911181926727,0.053410228341817856,0.21355196833610535
1672829348745223000,0.841222900390625,-0.1439523845911026,-0.021502895280718803,0.15978433191776276
1672829348755270700,0.851270751953125,-0.028125111013650894,-0.06102313846349716,0.07861864566802979
1672829348765318700,0.861318603515625,0.07836617529392242,-0.07243877649307251,-0.007017962168902159
1672829348775367700,0.87136767578125,0.12261006981134415,-0.0494847297668457,-0.07855313271284103
1672829348785415700,0.881415771484375,0.09654731303453445,-0.01432541012763977,-0.14061224460601807
1672829348795463700,0.891463623046875,0.026077672839164734,-0.030646059662103653,-0.18908390402793884
1672829348805512700,0.9015126953125,-0.05981752648949623,-0.019587550312280655,-0.21782952547073364
1672829348815560700,0.911560791015625,-0.1251683086156845,-0.02773176319897175,-0.22457797825336456
1672829348825608700,0.921608642578125,-0.15169605612754822,-0.05493488907814026,-0.21099533140659332
1672829348835656700,0.93165673828125,-0.1256340891122818,-0.0732467845082283,-0.1784677505493164
1672829348845705700,0.941705810546875,-0.013194099068641663,-0.10278017073869705,-0.12205293774604797
1672829348855753700,0.951753662109375,0.14932610094547272,-0.08873013406991959,-0.062307048588991165
1672829348865801700,0.9618017578125,0.24236497282981873,-0.2280254364013672,0.18861065804958344
1672829348875850800,0.971850830078125,0.23030777275562286,0.12473474442958832,0.4588887393474579
1672829348885898800,0.981898681640625,0.1608879566192627,0.1195269301533699,0.4069176912307739
1672829348895946800,0.99194677734375,0.06007718667387962,0.001577123999595642,0.17367538809776306
1672829348905994800,1.001994873046875,-0.01920032687485218,-0.054296527057886124,0.042338401079177856
1672829348916043800,1.012043701171875,-0.02803589589893818,0.01429132092744112,-0.00043755737715400755
1672829348926091800,1.022091796875,0.042131207883358,0.02370106801390648,-0.07011783868074417
1672829348936139800,1.032139892578125,0.09603092819452286,0.044564537703990936,-0.09966666996479034
1672829348946188800,1.042188720703125,0.064930260181427,0.02016305923461914,-0.08982762694358826
1672829348956236800,1.05223681640625,-0.007768707349896431,0.020781977102160454,-0.07152558118104935
1672829348966284800,1.062284912109375,-0.0373135507106781,-0.11826299130916595,-0.09536486864089966
1672829348976333600,1.07233349609375,0.06481947749853134,-0.16031324863433838,-0.17646478116512299
1672829348986381800,1.0823818359375,0.3336155116558075,-0.16445259749889374,-0.23920725286006927
1672829348996429600,1.0924296875,0.6567280888557434,-0.23906904458999634,-0.2370503693819046
1672829349006477800,1.102477783203125,0.9545783996582031,-0.2130744606256485,-0.12775476276874542
1672829349016526600,1.112526611328125,1.1630858182907104,-0.14822807908058167,0.09717608243227005
1672829349026574600,1.12257470703125,1.1975380182266235,-0.20133844017982483,0.40817683935165405
1672829349036622800,1.132622802734375,1.1598734855651855,-0.2796843647956848,0.7996876239776611
1672829349046671600,1.142671630859375,1.2245739698410034,-0.33799853920936584,1.272794485092163
1672829349056720000,1.152719970703125,1.4970507621765137,-0.4014449119567871,1.784038782119751
1672829349066767600,1.162767578125,2.0262787342071533,-0.6206041574478149,2.2951173782348633
1672829349076816000,1.17281591796875,2.780757427215576,-0.928580105304718,2.762155771255493
1672829349086864600,1.18286474609375,3.6875386238098145,-1.711927890777588,3.2072761058807373
1672829349096912600,1.19291259765625,4.639904022216797,-3.1307435035705566,3.7894954681396484
1672829349106961000,1.2029609375,5.480769634246826,-4.647461414337158,4.625399589538574
1672829349117009700,1.213009765625,6.066638946533203,-5.943124771118164,5.6827569007873535
1672829349127057700,1.2230576171875,6.289865493774414,-6.582554817199707,6.854579448699951
1672829349137105700,1.233105712890625,6.117527961730957,-6.785896301269531,8.032814979553223
1672829349147153700,1.243153564453125,5.653722763061523,-6.918619632720947,9.119560241699219
1672829349157202700,1.25320263671875,4.823085784912109,-6.729660987854004,9.923312187194824
1672829349167250700,1.263250732421875,3.671739101409912,-6.840619087219238,10.356236457824707
1672829349177298700,1.273298583984375,2.64223051071167,-7.246457099914551,10.348636627197266
1672829349187347700,1.28334765625,1.9962190389633179,-7.418489456176758,9.926982879638672
1672829349197395700,1.293395751953125,1.8544056415557861,-7.470741271972656,9.216691017150879
1672829349207443700,1.303443603515625,2.1901297569274902,-7.315629959106445,8.261300086975098
1672829349217491700,1.31349169921875,2.724400043487549,-6.984769821166992,7.058698654174805
1672829349227540700,1.323540771484375,3.2195394039154053,-6.548474311828613,5.693368434906006
1672829349237588700,1.333588623046875,3.32950758934021,-5.689094543457031,4.250624656677246
1672829349247636700,1.34363671875,2.9181618690490723,-4.821060657501221,2.8798959255218506
1672829349257685800,1.353685791015625,2.169628143310547,-3.968930721282959,1.70625638961792
1672829349267733800,1.363733642578125,1.2691943645477295,-3.448072671890259,0.9466773271560669
1672829349277781800,1.37378173828125,0.4295252561569214,-3.086832284927368,0.6098319292068481
1672829349287830800,1.383830810546875,-0.2166508138179779,-2.4219961166381836,0.4967530369758606
1672829349297878800,1.393878662109375,-0.606622576713562,-1.7405792474746704,0.42577847838401794
1672829349307926500,1.403926513671875,-0.7691296935081482,-1.3503752946853638,0.27493488788604736
1672829349317974800,1.413974853515625,-0.71012282371521,-1.1472176313400269,0.036980655044317245
1672829349328023600,1.4240234375,-0.5131442546844482,-0.9953007698059082,-0.18506546318531036
1672829349338071800,1.43407177734375,-0.23113495111465454,-0.92328280210495,-0.2926475703716278
1672829349348119800,1.444119873046875,0.030945133417844772,-0.7955480217933655,-0.287211537361145
1672829349358168800,1.4541689453125,0.1827692836523056,-0.6059844493865967,-0.23193496465682983
1672829349368216800,1.464216796875,0.17999666929244995,-0.47940200567245483,-0.17105457186698914
1672829349378264600,1.4742646484375,0.030532876029610634,-0.37225452065467834,-0.1291539967060089
1672829349388312800,1.484312744140625,-0.1322573721408844,-0.2792750597000122,-0.09170009195804596
1672829349398361600,1.494361572265625,-0.2327168732881546,-0.12545539438724518,-0.07854753732681274
1672829349408409900,1.504409912109375,-0.26896780729293823,0.021690115332603455,-0.08700148016214371
1672829349418457900,1.514457763671875,-0.27385658025741577,0.0247812457382679,-0.1290791630744934
1672829349428506600,1.524506591796875,-0.20086972415447235,-0.11301390081644058,-0.1324421912431717
1672829349438555000,1.534554931640625,-0.05882949382066727,-0.22517426311969757,-0.06889145076274872
1672829349448602600,1.5446025390625,0.10817387700080872,-0.20729567110538483,-0.003923634998500347
1672829349458651000,1.55465087890625,0.272909551858902,-0.2607753872871399,0.02310212329030037
1672829349468699600,1.56469970703125,0.3801281452178955,-0.28765761852264404,-0.030490797013044357
1672829349478747600,1.57474755859375,0.414310097694397,-0.2808297872543335,-0.09540002048015594
1672829349488795600,1.584795654296875,0.35897013545036316,-0.1617196500301361,-0.17982515692710876
1672829349498844700,1.5948447265625,0.1921401470899582,0.21429657936096191,-0.2424027919769287
1672829349508892700,1.604892578125,-0.10344702750444412,0.6276026964187622,-0.3000570237636566
1672829349518940700,1.614940673828125,-0.41773438453674316,1.0002588033676147,-0.39866483211517334
1672829349528989700,1.62498974609375,-0.6711013913154602,1.5189416408538818,-0.5093974471092224
1672829349539037700,1.63503759765625,-0.886812686920166,2.1427206993103027,-0.6213921904563904
1672829349549085700,1.645085693359375,-1.068242073059082,2.847022533416748,-0.7777924537658691
1672829349559133700,1.6551337890625,-1.1715514659881592,3.839799404144287,-1.0664311647415161
1672829349569182700,1.6651826171875,-1.2911113500595093,5.202168941497803,-1.5735318660736084
1672829349579230700,1.675230712890625,-1.6645777225494385,6.696774005889893,-2.322882890701294
1672829349589278700,1.68527880859375,-2.3343262672424316,7.980963230133057,-3.2735495567321777
1672829349599327700,1.69532763671875,-3.2356081008911133,8.88553524017334,-4.339347839355469
1672829349609375700,1.705375732421875,-4.2689948081970215,9.478553771972656,-5.374724864959717
1672829349619423700,1.715423828125,-5.158179759979248,9.894424438476562,-6.279296875
1672829349629472800,1.72547265625,-5.809727191925049,9.817082405090332,-7.081126689910889
1672829349639520800,1.735520751953125,-6.155835151672363,9.148906707763672,-7.813614368438721
1672829349649568800,1.74556884765625,-6.0557780265808105,8.042964935302734,-8.516271591186523
1672829349659616800,1.75561669921875,-5.631880283355713,6.886775493621826,-9.219500541687012
1672829349669665800,1.765665771484375,-5.1595282554626465,5.706191539764404,-9.843718528747559
1672829349679713800,1.7757138671875,-4.689249038696289,4.640497207641602,-10.249970436096191
1672829349689761500,1.785761474609375,-4.2620673179626465,3.7671635150909424,-10.314719200134277
1672829349699810800,1.795810791015625,-3.9750328063964844,2.8324592113494873,-9.946544647216797
1672829349709858600,1.805858642578125,-3.828963041305542,2.152257204055786,-9.156064987182617
1672829349719906800,1.81590673828125,-3.71825909614563,1.7133036851882935,-7.950364589691162
1672829349729954800,1.825954833984375,-3.561124563217163,1.3025169372558594,-6.5125250816345215
1672829349740003600,1.836003662109375,-3.264807939529419,1.075258731842041,-5.059464931488037
1672829349750051600,1.846051513671875,-2.798366069793701,0.853564441204071,-3.711613655090332
1672829349760099300,1.856099365234375,-2.176152229309082,0.7389332056045532,-2.5003609657287598
1672829349770148600,1.866148681640625,-1.6023560762405396,0.3881099224090576,-1.4078001976013184
1672829349780196400,1.8761962890625,-1.1811766624450684,0.12884560227394104,-0.45328786969184875
1672829349790244600,1.88624462890625,-0.8755496144294739,0.17829596996307373,0.34583303332328796
1672829349800293400,1.89629345703125,-0.6446492671966553,0.4454512298107147,0.9596682190895081
1672829349810341400,1.90634130859375,-0.4700316786766052,0.6377881765365601,1.373089075088501
1672829349820389600,1.9163896484375,-0.36232465505599976,0.6758029460906982,1.5778281688690186
1672829349830437400,1.926437255859375,-0.28556305170059204,0.8225948214530945,1.5848088264465332
1672829349840486400,1.936486328125,-0.24268268048763275,1.110310435295105,1.476335048675537
1672829349850534400,1.946534423828125,-0.2751005291938782,1.1081410646438599,1.3085449934005737
1672829349860582700,1.956582763671875,-0.3497396409511566,0.7957501411437988,1.109992265701294
1672829349870631400,1.96663134765625,-0.4046710431575775,0.45714250206947327,0.9266541004180908
1672829349880679400,1.976679443359375,-0.4430658519268036,0.24683694541454315,0.7656955718994141
1672829349890727400,1.9867275390625,-0.4461790919303894,0.07679598033428192,0.6279592514038086
1672829349900776400,1.9967763671875,-0.382408082485199,-0.062487080693244934,0.5160247683525085
1672829349910824400,2.006824462890625,-0.3029548227787018,-0.1373128443956375,0.40306970477104187
1672829349920872400,2.01687255859375,-0.32230666279792786,-0.29913797974586487,0.2425663024187088
1672829349930920400,2.02692041015625,-0.41340142488479614,-0.2301221489906311,0.012407667003571987
1672829349940969500,2.036969482421875,-0.4913084805011749,-0.2366572767496109,-0.2743455469608307
1672829349951017500,2.047017578125,-0.49194151163101196,-0.32124805450439453,-0.5611677169799805
1672829349961065500,2.0570654296875,-0.41940951347351074,-0.528256893157959,-0.8031401634216309
1672829349971114500,2.067114501953125,-0.30030789971351624,-0.5936782360076904,-0.9602466821670532
1672829349981162500,2.07716259765625,-0.23306334018707275,-0.5349963307380676,-1.0194125175476074
1672829349991210500,2.08721044921875,-0.27957624197006226,-0.4989789128303528,-0.9542087316513062
1672829350001258500,2.097258544921875,-0.37683916091918945,-0.4024749994277954,-0.78999263048172
1672829350011307500,2.1073076171875,-0.45141351222991943,-0.3281307518482208,-0.5517627596855164
1672829350021355300,2.117355224609375,-0.43664708733558655,-0.4141910672187805,-0.2303309440612793
1672829350031403500,2.127403564453125,-0.3318876624107361,-0.4429819583892822,0.09690897166728973
1672829350041452300,2.137452392578125,-0.17216351628303528,-0.43905138969421387,0.36564987897872925
1672829350051500500,2.14750048828125,-0.040468595921993256,-0.34159356355667114,0.5303016901016235
1672829350061548500,2.157548583984375,-0.033241044729948044,-0.28818652033805847,0.5727354288101196
1672829350071597600,2.16759765625,-0.11930269002914429,-0.2860136330127716,0.5088486075401306
1672829350081645600,2.1776455078125,-0.22135235369205475,-0.25231480598449707,0.36342933773994446
1672829350091693300,2.187693359375,-0.30137529969215393,-0.2881060838699341,0.17178374528884888
1672829350101741600,2.197741455078125,-0.3081253468990326,-0.25603950023651123,-0.017889251932501793
1672829350111790300,2.207790283203125,-0.25216859579086304,-0.2819419503211975,-0.17824457585811615
1672829350121838600,2.217838623046875,-0.19149832427501678,-0.35248348116874695,-0.2883859872817993
1672829350131886600,2.227886474609375,-0.1655583381652832,-0.37896594405174255,-0.3356211483478546
1672829350141935600,2.237935546875,-0.13887479901313782,-0.32630646228790283,-0.33876606822013855
1672829350151983600,2.247983642578125,-0.09198664873838425,-0.33757004141807556,-0.3021034002304077
1672829350162031400,2.25803125,-0.03371215611696243,-0.2465844750404358,-0.24263660609722137
1672829350172080600,2.26808056640625,0.0042131207883358,-0.14568103849887848,-0.18740850687026978
1672829350182128400,2.27812841796875,0.007296528667211533,-0.12428227066993713,-0.16233670711517334
1672829350192176600,2.2881767578125,0.011480621062219143,-0.04848204925656319,-0.1664307862520218
1672829350202224400,2.298224365234375,0.07827909290790558,-0.015599199570715427,-0.1877049207687378
1672829350212273400,2.3082734375,0.16415219008922577,-0.07115327566862106,-0.2060844600200653
1672829350222321400,2.3183212890625,0.1953796148300171,-0.09601547569036484,-0.21946310997009277
1672829350232369400,2.328369384765625,0.16845425963401794,-0.09400931745767593,-0.21188561618328094
1672829350242418400,2.33841845703125,0.09077171236276627,-0.10152289271354675,-0.18765564262866974
1672829350252466400,2.348466552734375,-0.03268231078982353,-0.056050218641757965,-0.1682041883468628
1672829350262514700,2.3585146484375,-0.14901238679885864,-0.017589911818504333,-0.15934598445892334
1672829350272563500,2.3685634765625,-0.20934364199638367,-0.06700646132230759,-0.17740647494792938
1672829350282611500,2.378611572265625,-0.2063201516866684,-0.11728321760892868,-0.21138042211532593
1672829350292659500,2.388659423828125,-0.1609896868467331,-0.21739330887794495,-0.23782800137996674
1672829350302707500,2.39870751953125,-0.07692274451255798,-0.22727656364440918,-0.2301144301891327
1672829350312756500,2.408756591796875,-0.0032200280111283064,-0.15985438227653503,-0.17644506692886353
1672829350322804500,2.418804443359375,0.04530889168381691,-0.09898091107606888,-0.08189193904399872
1672829350332852500,2.4288525390625,0.0908324345946312,-0.0776577740907669,0.05423847213387489
1672829350342901500,2.438901611328125,0.1318749487400055,-0.027273166924715042,0.19634102284908295
1672829350352949500,2.448949462890625,0.12670761346817017,-0.007188138086348772,0.31954044103622437
1672829350362997500,2.45899755859375,0.07137937098741531,-0.013619406148791313,0.385882705450058
1672829350373046300,2.46904638671875,-0.00920468382537365,-0.01014185044914484,0.37509557604789734
1672829350383094500,2.479094482421875,-0.10031168907880783,-0.02317189797759056,0.299765408039093
1672829350393142500,2.489142578125,-0.1513730138540268,-0.04964691400527954,0.17779982089996338
1672829350403190300,2.499190185546875,-0.13303235173225403,-0.08363577723503113,0.03419685363769531
1672829350413239600,2.509239501953125,-0.0744721069931984,-0.0800626128911972,-0.08944359421730042
1672829350423287300,2.519287353515625,-0.015320632606744766,0.19688589870929718,0.04435068741440773
1672829350433335600,2.52933544921875,-0.012021242640912533,0.05924760922789574,0.41265735030174255
1672829350443384300,2.53938427734375,-0.011059575714170933,-0.0183478482067585,0.3561389446258545
1672829350453432600,2.5494326171875,-0.028180239722132683,-0.017553692683577538,0.2709430754184723
1672829350463480600,2.55948046875,-0.06624773144721985,0.0005765743553638458,0.20170143246650696
1672829350473529600,2.569529541015625,-0.09146919846534729,-0.01104492787271738,0.1674736887216568
1672829350483577600,2.57957763671875,-0.11380193382501602,-0.011409780941903591,0.15298981964588165
1672829350493625300,2.589625244140625,-0.12903015315532684,-0.02275005355477333,0.14617718756198883
1672829350503673600,2.599673583984375,-0.11500834673643112,-0.028490763157606125,0.1502062827348709
1672829350513722400,2.609722412109375,-0.07870493084192276,-0.011997806839644909,0.17251132428646088
1672829350523770600,2.6197705078125,-0.052086904644966125,0.03885525465011597,0.1673911213874817
1672829350533818400,2.629818359375,-0.058284077793359756,0.1390705406665802,0.14220879971981049
1672829350543867600,2.63986767578125,-0.11481872946023941,0.21783459186553955,0.1260165274143219
1672829350553915400,2.649915283203125,-0.17295420169830322,0.2812705636024475,0.1346592754125595
1672829350563963400,2.65996337890625,-0.17950370907783508,0.24080222845077515,0.1682923436164856
1672829350574012400,2.670012451171875,-0.1505996286869049,0.01582343690097332,0.2766595482826233
1672829350584060400,2.680060302734375,-0.1338060051202774,-0.11934157460927963,0.38532400131225586
1672829350594108700,2.690108642578125,-0.10605745762586594,-0.1348012238740921,0.4276868999004364
1672829350604156400,2.700156494140625,-0.045164816081523895,-0.1294328272342682,0.44102346897125244
1672829350614205400,2.710205322265625,0.029201295226812363,-0.1059727743268013,0.45719391107559204
1672829350624253400,2.72025341796875,0.09547645598649979,-0.06813377887010574,0.4603276550769806
1672829350634301400,2.730301513671875,0.10043978691101074,-0.11167033761739731,0.5129343867301941
1672829350644350500,2.7403505859375,0.04518239200115204,-0.1354297250509262,0.5499201416969299
1672829350654398500,2.7503984375,-0.022911174222826958,-0.11532339453697205,0.547831118106842
1672829350664446700,2.76044677734375,-0.06942008435726166,-0.10084538906812668,0.5422936081886292
1672829350674495500,2.77049560546875,-0.059957075864076614,-0.1213432028889656,0.5265468955039978
1672829350684543500,2.78054345703125,0.018965966999530792,-0.08879484981298447,0.5026711225509644
1672829350694591500,2.790591552734375,0.08371380716562271,0.23718325793743134,-0.15885010361671448
1672829350704639500,2.800639404296875,0.050036802887916565,0.19459131360054016,0.09605675935745239
1672829350714688500,2.8106884765625,0.004057858604937792,0.08990112692117691,-0.06324262171983719
1672829350724736500,2.820736572265625,-0.01059485413134098,0.022701850160956383,0.0091745899990201
1672829350734784000,2.830783935546875,0.00375958438962698,0.047026630491018295,-0.0062640211544930935
1672829350744832800,2.840832763671875,0.0017603494925424457,0.07308965921401978,-0.004207261838018894
1672829350754881000,2.850881103515625,-0.0002620550512801856,0.058887284249067307,-0.00227913330309093
1672829350764928800,2.8609287109375,0.00851306039839983,0.029521673917770386,0.005800365004688501
1672829350774978000,2.87097802734375,0.0019270633347332478,0.027902204543352127,0.0033838124945759773
1672829350785025800,2.88102587890625,0.004945756401866674,0.02292608842253685,0.0071178306825459
1672829350795073800,2.89107373046875,0.016466325148940086,0.030187996104359627,0.002971288748085499
1672829350805121800,2.901121826171875,0.01576697826385498,0.015501728281378746,0.006476275157183409
1672829350815170800,2.9111708984375,0.006748716346919537,-0.017127322033047676,0.007691475562751293
1672829350825218800,2.92121875,0.0013456953456625342,-0.009660083800554276,0.007864315062761307
1672829350835266800,2.931266845703125,0.0011496866354718804,-0.004049070179462433,0.0028594359755516052
1672829350845315800,2.94131591796875,0.0014817827614024282,0.010721886530518532,0.004206729121506214
1672829350855363800,2.95136376953125,-0.00017124126316048205,0.007106379140168428,0.006876814644783735
1672829350865411800,2.961411865234375,0.001383778522722423,0.0016857809387147427,0.005760950036346912
1672829350875460900,2.9714609375,0.0020964404102414846,-0.005757221486419439,0.0038932752795517445
1672829350885508900,2.9815087890625,0.0025782061275094748,-0.010553308762609959,0.009371663443744183
1672829350895556900,2.991556884765625,0.0022096247412264347,-0.010180199518799782,0.0073138391599059105
1672829350905604900,3.00160498046875,0.0037891454994678497,-0.00250496924854815,0.009765811264514923
1672829350915654000,3.01165380859375,0.0011076086666435003,-0.013745639473199844,0.009228385984897614
1672829350925702000,3.021701904296875,-0.0023433153983205557,-0.001990446588024497,0.006265885196626186
1672829350935750000,3.03175,-0.0020961740519851446,-0.0027206854429095984,0.00515721132978797
1672829350945799000,3.041798828125,-0.000993625377304852,-0.012850018218159676,0.005503954831510782
1672829350955847000,3.051846923828125,0.000529702752828598,-0.019710587337613106,0.006441920530050993
1672829350965895000,3.06189501953125,0.0002865561400540173,-0.016261260956525803,0.006934338714927435
1672829350975943700,3.071943603515625,0.0013004215434193611,-0.011610583402216434,0.0034493261482566595
1672829350985992000,3.081991943359375,-0.0003126551164314151,-0.009807356633245945,0.004605404566973448
1672829350996040000,3.0920400390625,-0.003367833560332656,-0.006144445389509201,0.007475493010133505
1672829351006087700,3.102087646484375,-0.013585316948592663,-0.0035060516092926264,0.009223858825862408
1672829351016137000,3.112136962890625,-0.003064233111217618,-0.007873902097344398,0.011546667665243149
1672829351026184700,3.122184814453125,0.0018881811993196607,0.0046607982367277145,0.007232612930238247
1672829351036233000,3.13223291015625,0.0016945693641901016,-0.0041792988777160645,0.006804376374930143
1672829351046281700,3.14228173828125,0.0015720640076324344,-0.0014655375853180885,0.006199839059263468
1672829351056330000,3.152330078125,0.0020101540721952915,0.008216118440032005,0.00529569573700428
1672829351066378000,3.1623779296875,0.0024594292044639587,0.0048855687491595745,0.007669903803616762
1672829351076426800,3.1724267578125,0.0004138552176300436,0.0016706009628251195,0.007986820302903652
1672829351086475000,3.18247509765625,0.005109008401632309,0.0188439954072237,0.007355118170380592
1672829351096522800,3.192522705078125,-0.0032722260802984238,-0.0011941614793613553,0.00401604687795043
1672829351106571000,3.202571044921875,0.0008546083699911833,-0.000013582121027866378,0.00632127933204174
1672829351116619800,3.212619873046875,-0.0008311725687235594,0.00842704065144062,0.006481068674474955
1672829351126667800,3.222667724609375,-0.0024921861477196217,0.010399910621345043,0.005113801918923855
1672829351136715800,3.2327158203125,0.001065264455974102,0.007220895029604435,0.003629089565947652
1672829351146764800,3.242764892578125,0.0005608617211692035,0.003207244910299778,0.007216101046651602
1672829351156812800,3.252812744140625,0.0008607336785644293,-0.005276787560433149,0.0068389978259801865
1672829351166860800,3.26286083984375,-0.0002735066518653184,0.0008918926469050348,0.006976150441914797
1672829351176909800,3.272909912109375,0.0030977888964116573,-0.012752813287079334,0.003936951048672199
1672829351186957800,3.282957763671875,0.0011350392596796155,-0.01392993051558733,0.004266916774213314
1672829351197005800,3.293005859375,0.0030306773260235786,0.004053597338497639,0.007236873731017113
1672829351207053800,3.3030537109375,0.0024463797453790903,-0.007257113698869944,0.00506906071677804
1672829351217102800,3.313102783203125,0.0029699571896344423,-0.00301736150868237,0.00726510351523757
1672829351227150800,3.32315087890625,-0.00017896443023346364,-0.004965463653206825,0.006354035809636116
1672829351237198800,3.33319873046875,0.001981658162549138,-0.002755040070042014,0.006629406940191984
1672829351247248000,3.343247802734375,0.0017832526937127113,-0.0041582598350942135,0.007847269997000694
1672829351257296000,3.3532958984375,0.0033446638844907284,-0.00478410255163908,0.005147091578692198
1672829351267344000,3.36334375,0.002560629276558757,-0.005392901133745909,0.00574843306094408
1672829351277393000,3.373392822265625,0.003216566052287817,-0.0027302727103233337,0.007951133884489536
1672829351287441000,3.38344091796875,-0.00008309062832267955,-0.0067665595561265945,0.0035840822383761406
1672829351297489000,3.393489013671875,-0.0004308994684834033,-0.004056260455399752,0.008153533563017845
1672829351307537000,3.403536865234375,0.001490571303293109,-0.005531385540962219,0.007642739452421665
1672829351317586000,3.4135859375,0.002111886627972126,-0.004554271697998047,0.0033952640369534492
1672829351327634000,3.423634033203125,0.0008993495139293373,-0.002555036684498191,0.006838465109467506
1672829351337681700,3.433681640625,-0.0002537992550060153,-0.004237888380885124,0.006253635045140982
1672829351347731000,3.44373095703125,0.002435460686683655,-0.004433097783476114,0.005823001731187105
1672829351357778700,3.45377880859375,0.0032091091852635145,-0.006712497677654028,0.007861651480197906
1672829351367827000,3.463826904296875,0.0006958839949220419,-0.003087402554228902,0.006346579175442457
1672829351377875700,3.473875732421875,0.0001603222917765379,-0.004195011220872402,0.008009190671145916
1672829351387924000,3.483924072265625,0.0009270463488064706,-0.004385693464428186,0.004971588961780071
1672829351397972000,3.493971923828125,0.0027686222456395626,-0.004844556096941233,0.006226470693945885
1672829351408019700,3.504019775390625,0.0019600866362452507,-0.004000067710876465,0.003865045728161931
1672829351418069000,3.514069091796875,0.0033955303952097893,-0.005082909017801285,0.004798217210918665
1672829351428116700,3.52411669921875,0.0015672702575102448,-0.0044048684649169445,0.008438225835561752
1672829351438165000,3.5341650390625,-0.0004623247659765184,-0.0044256411492824554,0.006935670506209135
1672829351448213800,3.5442138671875,0.001508414396084845,-0.0057188719511032104,0.00621022516861558
1672829351458262000,3.554261962890625,0.001395496423356235,-0.0062371231615543365,0.006865363102406263
1672829351468309800,3.564309814453125,0.003007774008437991,-0.0028764803428202868,0.006907973438501358
1672829351478358800,3.57435888671875,-0.0003504719934426248,-0.006697051227092743,0.007546599488705397
1672829351488406800,3.58440673828125,0.00021278657368384302,-0.005708219483494759,0.005194495897740126
1672829351498454800,3.594454833984375,0.0028357338160276413,-0.004343083128333092,0.005822202656418085
1672829351508503000,3.6045029296875,0.002441585995256901,-0.0049068741500377655,0.006971622817218304
1672829351518551800,3.6145517578125,0.0023558323737233877,-0.005047223065048456,0.008495749905705452
1672829351528599800,3.624599853515625,0.0008942894637584686,-0.0037385455798357725,0.007428621407598257
1672829351538647800,3.634647705078125,0.0007624630234204233,-0.0030711572617292404,0.002834135899320245
1672829351548696800,3.64469677734375,0.003552124137058854,-0.0031105722300708294,0.0038314899429678917
1672829351558744800,3.654744873046875,0.004278634674847126,-0.004486094694584608,0.004708468914031982
1672829351568792800,3.664792724609375,0.0014857775531709194,-0.006476008798927069,0.005244030617177486
1672829351578841900,3.674841796875,0.00016591492749284953,-0.0037587855476886034,0.002927879337221384
1672829351588889900,3.684889892578125,0.000728907180018723,-0.002660231664776802,0.0049039446748793125
1672829351598937900,3.694937744140625,0.001115864492021501,-0.005109008401632309,0.004412857815623283
1672829351608985900,3.70498583984375,0.002092179376631975,-0.004008057527244091,0.0060030315071344376
1672829351619035000,3.715034912109375,0.002581934677436948,-0.003974767867475748,0.006927148438990116
1672829351629083000,3.725082763671875,0.0005704491049982607,-0.0054845139384269714,0.005505286622792482
1672829351639131000,3.735130859375,0.0009060074225999415,-0.006085855886340141,0.0048946235328912735
1672829351649180000,3.745179931640625,0.0008314388687722385,-0.0049550775438547134,0.006342584267258644
1672829351659228000,3.755227783203125,0.0008333030855283141,-0.0030690268613398075,0.006445115897804499
1672829351669275600,3.765275634765625,0.0010966897243633866,-0.003946272190660238,0.004969724919646978
1672829351679325000,3.775324951171875,0.000862864195369184,-0.005510879214853048,0.005636580288410187
1672829351689372700,3.78537255859375,0.0007701861904934049,-0.004502073861658573,0.006712763570249081
1672829351699421000,3.7954208984375,0.0020732709672302008,-0.0029377329628914595,0.005273325368762016
1672829351709469000,3.805468994140625,0.0010522148804739118,-0.003962250892072916,0.005136971361935139
1672829351719518000,3.81551806640625,0.0002700445184018463,-0.004620584659278393,0.007845140062272549
1672829351729566000,3.82556591796875,0.0024802018888294697,-0.002180063631385565,0.003970240708440542
1672829351739614500,3.835614501953125,-0.0003147856332361698,-0.004836300387978554,0.007179882377386093
1672829351749663500,3.84566357421875,0.0032557144295424223,-0.005005944054573774,0.007904794998466969
1672829351759711500,3.85571142578125,0.00216568261384964,-0.003969441633671522,0.0029622339643538
1672829351769759500,3.865759521484375,0.001085770782083273,-0.002739860210567713,0.005009139887988567
1672829351779808500,3.87580859375,0.001416002749465406,-0.003969974350184202,0.005524993874132633
1672829351789856500,3.8858564453125,0.0017355820164084435,-0.003409378696233034,0.007554056588560343
1672829351799904500,3.895904541015625,0.0022887205705046654,-0.005428853910416365,0.0044054011814296246
1672829351809952500,3.905952392578125,-0.000030360035452758893,-0.005576925817877054,0.008439291268587112
1672829351820001500,3.91600146484375,0.0016764599131420255,-0.004235225263983011,0.006307963281869888
1672829351830049500,3.926049560546875,0.0014231932582333684,-0.004159058444201946,0.005572664551436901
1672829351840097500,3.93609765625,0.004467719234526157,-0.005379052832722664,0.005317001137882471
1672829351850143500,3.9461435546875,0.0010327738709747791,-0.006119145080447197,0.006171609275043011
1672829351860191500,3.95619140625,-0.0009262474486604333,-0.0038272286765277386,0.005944442003965378
1672829351870239500,3.966239501953125,0.003183010034263134,-0.004525776021182537,0.008561530150473118
1672829351880287500,3.97628759765625,0.002118011936545372,-0.0036525253672152758,0.007330883294343948
1672829351890336500,3.98633642578125,0.00216488353908062,-0.0031188279390335083,0.0067575047723948956
1672829351900384500,3.996384521484375,0.0017813884187489748,-0.0056799896992743015,0.005401689559221268
1672829351910432500,4.0064326171875,0.00373108871281147,-0.004490355961024761,0.004388889297842979
1672829351920481500,4.0164814453125,0.0024234766606241465,-0.0018865832826122642,0.005788114387542009
1672829351930529500,4.026529541015625,0.0007661914569325745,-0.005114867351949215,0.004502606578171253
1672829351940577500,4.03657763671875,0.0024620923213660717,-0.004005128052085638,0.008758338168263435
1672829351950625500,4.04662548828125,0.002326537622138858,-0.004532966297119856,0.006190251559019089
1672829351960674600,4.056674560546875,0.0008767126128077507,-0.003891677362844348,0.006174805108457804
1672829351970722600,4.06672265625,0.0015992282424122095,-0.005982791539281607,0.006108226254582405
1672829351980770600,4.0767705078125,-0.0004170510219410062,-0.005811816547065973,0.005891178734600544
1672829351990819300,4.0868193359375,0.0011891013709828258,-0.007101851515471935,0.007835020311176777
1672829352000867600,4.09686767578125,0.00037523938226513565,-0.006600378546863794,0.007754325866699219
1672829352010915600,4.10691552734375,0.0007315703551284969,-0.0029981867410242558,0.009545568376779556
1672829352020964600,4.116964599609375,0.0012610068079084158,-0.004002464935183525,0.006119145080447197
1672829352031012600,4.1270126953125,0.001755023142322898,-0.005093828309327364,0.006198240909725428
1672829352041060400,4.137060302734375,0.0026256104465574026,-0.003938548732548952,0.007277354132384062
1672829352051108600,4.147108642578125,0.0025901903863996267,-0.003341201925650239,0.006619286723434925
1672829352061157400,4.157157470703125,0.0014255901332944632,-0.0032115059439092875,0.006484797224402428
1672829352071205600,4.16720556640625,0.001386175281368196,-0.001999501371756196,0.005388640332967043
1672829352081253600,4.177253662109375,0.0005496764206327498,-0.004304467234760523,0.007586280815303326
1672829352091302700,4.187302734375,-0.00044847631943412125,-0.004457066301256418,0.004141747951507568
1672829352101350700,4.1973505859375,0.0013696637470275164,-0.0030458574183285236,0.006651244591921568
1672829352111398400,4.2073984375,-0.0003909520455636084,-0.0006490123341791332,0.005209941882640123
1672829352121447700,4.21744775390625,0.0006282397080212831,-0.004172907210886478,0.007979629561305046
1672829352131495400,4.227495361328125,0.002900714986026287,-0.004773716442286968,0.005411809775978327
1672829352141543700,4.237543701171875,0.0023313311394304037,-0.005395564250648022,0.003879693103954196
1672829352151591400,4.24759130859375,0.0017185378819704056,-0.0046272422187030315,0.00675351032987237
1672829352161640400,4.257640380859375,0.0020969731267541647,-0.0021467742044478655,0.006603574380278587
1672829352171688400,4.2676884765625,0.0017188041238114238,-0.005106611177325249,0.010901383124291897
1672829352181736400,4.277736328125,0.0006077333819121122,-0.0022240057587623596,0.009099222719669342
1672829352191785500,4.287785400390625,0.00250576832331717,-0.003418167121708393,0.007710916455835104
1672829352201833500,4.29783349609375,0.002272208919748664,-0.004335626028478146,0.006748982705175877
1672829352211881500,4.307881591796875,0.0013203952694311738,-0.005656288005411625,0.0028823392931371927
1672829352221930500,4.317930419921875,0.003055444685742259,-0.006624347064644098,0.00993438996374607
1672829352231978500,4.327978515625,0.0013483584625646472,-0.0022690133191645145,0.005847768858075142
1672829352242026500,4.338026611328125,-0.00008921589324017987,-0.005253884010016918,0.005000883713364601
1672829352252074500,4.348074462890625,0.0006671218434348702,-0.0026402578223496675,0.008902681060135365
1672829352262123500,4.35812353515625,0.0021848573815077543,-0.004163319710642099,0.007476025726646185
1672829352272171500,4.368171630859375,0.0018991001415997744,-0.00446851784363389,0.007505054119974375
1672829352282219500,4.378219482421875,0.0006791060441173613,-0.006754841655492783,0.006478938274085522
1672829352292268500,4.3882685546875,0.0013936321483924985,-0.005622199270874262,0.007728226948529482
1672829352302316500,4.398316650390625,0.0002735066518653184,-0.003439738880842924,0.0059689427725970745
1672829352312364500,4.408364501953125,-0.0002085255109705031,-0.0029827402904629707,0.006929811555892229
1672829352322413600,4.41841357421875,0.0014966964954510331,-0.0052056810818612576,0.008669654838740826
1672829352332461600,4.428461669921875,0.002609098795801401,-0.004279433749616146,0.007160973735153675
1672829352342509600,4.438509521484375,-0.0010881676571443677,-0.0030863373540341854,0.00746164470911026
1672829352352557300,4.448557373046875,0.002225603675469756,-0.004598480183631182,0.00566853815689683
1672829352362606600,4.458606689453125,0.00216568261384964,-0.005230181850492954,0.003988882526755333
1672829352372654300,4.468654296875,-0.0001358212175546214,-0.0034850125666707754,0.006743390113115311
1672829352382702600,4.47870263671875,-0.00040320257539860904,-0.0028181569650769234,0.006961503066122532
1672829352392751400,4.48875146484375,-0.00034674355993047357,-0.0037238982040435076,0.004061587154865265
1672829352402799600,4.498799560546875,-0.0005273058777675033,-0.007327155210077763,0.0065678879618644714
1672829352412847600,4.50884765625,0.0020511667244136333,-0.005834186915308237,0.005243497900664806
1672829352422895400,4.518895263671875,0.0013616742799058557,-0.003531351685523987,0.005281048361212015
1672829352432944600,4.528944580078125,0.0017118799732998013,-0.00571860559284687,0.007980961352586746
1672829352442992400,4.538992431640625,0.0011880361707881093,-0.003117762738838792,0.008826248347759247
1672829352453040600,4.54904052734375,0.001406947965733707,-0.006469883490353823,0.00666535971686244
1672829352463089400,4.55908935546875,0.0008889631717465818,-0.0024288028944283724,0.005529255140572786
1672829352473137700,4.5691376953125,0.00061279337387532,-0.003524960018694401,0.007090932689607143
1672829352483185400,4.579185302734375,0.0013403689954429865,-0.0027305390685796738,0.00866352953016758
1672829352493234700,4.589234619140625,0.00427171029150486,-0.003955593332648277,0.00863210391253233
1672829352503282400,4.599282470703125,0.0031902005430310965,-0.004114849958568811,0.005111138802021742
1672829352513330400,4.609330322265625,0.0013784521725028753,-0.004186222795397043,0.005838980432599783
1672829352523378700,4.619378662109375,0.003905259305611253,-0.0057260626927018166,0.006774548906832933
1672829352533428500,4.629428466796875,0.001141963410191238,-0.006786533165723085,0.006521814968436956
1672829352543476500,4.6394765625,-0.0005217132274992764,-0.0032583775464445353,0.007852330803871155
1672829352553524500,4.6495244140625,0.004618453793227673,-0.003010703483596444,0.003900199430063367
1672829352563573500,4.659573486328125,0.0008788431296125054,-0.005082909017801285,0.006316485349088907
1672829352573621500,4.66962158203125,0.0009004147723317146,-0.002231995342299342,0.003224022686481476
1672829352583669500,4.67966943359375,0.0015539544401690364,-0.005568669643253088,0.005407814867794514
1672829352593718500,4.689718505859375,0.0026786073576658964,-0.0016647420125082135,0.0054450989700853825
1672829352603766500,4.6997666015625,0.0006298375665210187,-0.002737463219091296,0.0051276502199471
1672829352613814500,4.709814453125,0.0012269183062016964,-0.0028932581190019846,0.00683047529309988
1672829352623862500,4.719862548828125,-0.0018128136871382594,-0.006938599981367588,0.005982258822768927
1672829352633911600,4.72991162109375,0.0013411679537966847,-0.0032860743813216686,0.007562845014035702
1672829352643959600,4.73995947265625,0.0019475696608424187,-0.002828809665516019,0.004492486361414194
1672829352654007600,4.750007568359375,0.004295678809285164,-0.0028722193092107773,0.009313873015344143
1672829352664056600,4.760056640625,0.00199390877969563,-0.002561428351327777,0.006323942448943853
1672829352674104600,4.7701044921875,0.000853809411637485,-0.004689826630055904,0.008021174930036068
1672829352684152600,4.780152587890625,0.0001893507578643039,-0.003055444685742259,0.0064983791671693325
1672829352694201300,4.790201416015625,0.0005661880713887513,-0.0029345371294766665,0.006874950136989355
1672829352704249600,4.80024951171875,0.0036037894897162914,-0.004596083424985409,0.0090568782761693
1672829352714297600,4.810297607421875,0.00046845004544593394,-0.0027446537278592587,0.008730906993150711
1672829352724345300,4.820345458984375,-0.000494016392622143,-0.004240285139530897,0.006102100946009159
1672829352734394600,4.83039453125,0.002971288748085499,-0.003822701284661889,0.00461658975109458
1672829352744441900,4.84044189453125,0.0007036071619950235,-0.0018516959389671683,0.005298891570419073
1672829352754489900,4.85048974609375,0.00341577036306262,-0.003865045728161931,0.007476824801415205
1672829352764539000,4.860538818359375,0.0008303736103698611,-0.004281830508261919,0.004652542527765036
1672829352774587000,4.8705869140625,0.0012298477813601494,-0.004697283264249563,0.005357214715331793
1672829352784635000,4.880634765625,0.0017515610670670867,-0.00504136411473155,0.006975085008889437
1672829352794682600,4.8906826171875,0.003147856332361698,-0.004482100252062082,0.00637827068567276
1672829352804732000,4.90073193359375,0.0031092404387891293,-0.00487118773162365,0.0057127466425299644
1672829352814779600,4.910779541015625,0.0031491878908127546,-0.003971305675804615,0.00860094465315342
1672829352824828000,4.920827880859375,0.0020695424173027277,-0.005720736458897591,0.007196926511824131
1672829352834876700,4.930876708984375,0.0006122607155703008,-0.0032565132714807987,0.005085838492959738
1672829352844925000,4.940925048828125,0.0011795139871537685,-0.006714095361530781,0.007130347657948732
1672829352854973000,4.950972900390625,0.0031150993891060352,-0.0024224112275987864,0.005239502992480993
1672829352865022000,4.96102197265625,0.0003121224872302264,-0.011838017031550407,0.0007648598402738571
1672829352875070000,4.971070068359375,-0.000702009245287627,-0.04891108348965645,0.005849367007613182
1672829352885117700,4.98111767578125,-0.0035811527632176876,-0.03050038404762745,0.007757255341857672
1672829352895166000,4.991166015625,-0.004875715356320143,-0.018744925037026405,0.0044077979400753975
1672829352905214700,5.001214599609375,0.0015962987672537565,-0.0018612833227962255,0.009637979790568352
1672829352915263000,5.011262939453125,-0.06257150322198868,0.003626426449045539,0.008462194353342056
1672829352925311000,5.02131103515625,-0.3118620216846466,0.004142280668020248,0.006626743823289871
1672829352935360000,5.031360107421875,-0.6124516725540161,0.0037848844658583403,0.006614226847887039
1672829352945407700,5.04140771484375,-0.922613263130188,-0.008256864733994007,0.010337592102587223
1672829352955455700,5.051455810546875,-1.244134783744812,-0.012308863922953606,0.0046610645949840546
1672829352965504000,5.06150390625,-1.539678931236267,-0.01942909136414528,0.005844573490321636
1672829352975552800,5.071552734375,-1.7851147651672363,-0.011090201325714588,0.013525130227208138
1672829352985601000,5.08160107421875,-1.966339111328125,-0.015194132924079895,0.001856223214417696
1672829352995648800,5.091648681640625,-2.089250087738037,-0.012343751266598701,-0.0032176312524825335
1672829353005698000,5.101697998046875,-2.166428565979004,-0.022433670237660408,0.003440005239099264
1672829353015745800,5.111745849609375,-2.1553361415863037,-0.004464789759367704,0.010821488685905933
1672829353025793800,5.121793701171875,-2.0312888622283936,0.01115997601300478,0.005362274590879679
1672829353035842800,5.1318427734375,-1.8528780937194824,-0.017674600705504417,0.011364241130650043
1672829353045890800,5.141890869140625,-1.6805404424667358,-0.0009230516152456403,0.0011134676169604063
1672829353055939000,5.15193896484375,-1.5347901582717896,-0.0233474001288414,0.0023334617726504803
1672829353065986800,5.16198681640625,-1.416698932647705,-0.009382848627865314,0.009549030102789402
1672829353076035800,5.172035888671875,-1.3623155355453491,-0.028781047090888023,0.009856891818344593
1672829353086083800,5.182083740234375,-1.361656904220581,-0.017971010878682137,0.0057319216430187225
1672829353096131800,5.1921318359375,-1.4188618659973145,-0.022652314975857735,0.013102485798299313
1672829353106180900,5.202180908203125,-1.5250871181488037,-0.010610033757984638,0.013878530822694302
1672829353116228900,5.212228759765625,-1.65738046169281,-0.022311696782708168,0.004051999654620886
1672829353126276600,5.222276611328125,-1.7744802236557007,-0.020431239157915115,0.005096225067973137
1672829353136326000,5.232325927734375,-1.8735077381134033,-0.02425980009138584,0.004796885885298252
1672829353146373600,5.24237353515625,-1.94879150390625,-0.021679995581507683,0.014466291293501854
1672829353156422000,5.252421875,-2.000502347946167,-0.012342952191829681,0.004141747951507568
1672829353166470000,5.262469970703125,-2.000025987625122,-0.024710671976208687,0.006070143077522516
1672829353176519000,5.272518798828125,-1.9444622993469238,-0.01846209727227688,0.009005479514598846
1672829353186567000,5.28256689453125,-1.850285530090332,-0.023577498272061348,0.009370332583785057
1672829353196614700,5.29261474609375,-1.7422237396240234,-0.016567790880799294,0.00624191714450717
1672829353206664000,5.302663818359375,-1.6248701810836792,-0.007111172657459974,0.0013614079216495156
1672829353216711700,5.312711669921875,-1.5097955465316772,-0.013485714793205261,0.004029362928122282
1672829353226760000,5.322760009765625,-1.4117594957351685,-0.009850500151515007,0.011687282472848892
1672829353236808000,5.332807861328125,-1.338350534439087,-0.011036938056349754,0.006514358334243298
1672829353246857000,5.34285693359375,-1.2889456748962402,-0.0013406352372840047,0.012426842004060745
1672829353256905000,5.352905029296875,-1.2550019025802612,0.003049319377169013,0.009458216838538647
1672829353266952700,5.36295263671875,-1.2391984462738037,0.01912815496325493,0.006776946131139994
1672829353277002000,5.373001953125,-1.2218066453933716,-0.006162022240459919,0.007515174336731434
1672829353287049700,5.3830498046875,-1.1787166595458984,0.013058810494840145,0.004239486064761877
1672829353297098000,5.393097900390625,-1.0640244483947754,-0.002585130510851741,0.005306880921125412
1672829353307146800,5.403146728515625,-0.9236329793930054,0.02544783614575863,0.005948170088231564
1672829353317195000,5.413195068359375,-0.7729875445365906,-0.002745985286310315,0.007083741948008537
1672829353327242800,5.42324267578125,-0.6267424821853638,0.008207329548895359,0.006998254451900721
1672829353337290800,5.433290771484375,-0.449420690536499,0.03874073922634125,0.01236079540103674
1672829353347339800,5.44333984375,-0.18021345138549805,0.009207080118358135,0.0057012951001524925
1672829353357387800,5.4533876953125,0.022182533517479897,-0.014026602730154991,0.0075846826657652855
1672829353367436000,5.46343603515625,0.003492203075438738,0.008218514733016491,0.006166016682982445
1672829353377484800,5.47348486328125,0.002189118415117264,-0.009908556938171387,0.0051681301556527615
1672829353387533000,5.483532958984375,0.0021230720449239016,-0.002040514023974538,0.006494384724646807
1672829353397580800,5.493580810546875,-0.00020506340661086142,-0.004837365821003914,0.006857373286038637
1672829353407628800,5.50362890625,0.0008833705214783549,-0.01486150361597538,0.006086388137191534
1672829353417677800,5.513677734375,0.0034053840208798647,-0.00007057376933516935,0.007811317685991526
1672829353427725800,5.523725830078125,0.0007339671719819307,-0.004825914278626442,0.005776662845164537
1672829353437773800,5.53377392578125,0.0016532903537154198,-0.005528988782316446,0.004062119405716658
1672829353447822800,5.54382275390625,0.0037199032958596945,-0.00440966198220849,0.005842442624270916
1672829353457870800,5.553870849609375,0.0009121326729655266,-0.005051217507570982,0.005152417812496424
1672829353467918800,5.5639189453125,0.001270327833481133,-0.005676527973264456,0.005349491722881794
1672829353477967600,5.573967529296875,0.002978213131427765,-0.008079764433205128,0.006118080113083124
1672829353488016000,5.584015869140625,0.004083158448338509,-0.006028064992278814,0.004178766161203384
1672829353498064000,5.59406396484375,0.0025190841406583786,-0.006871488410979509,0.006850715726613998
1672829353508112000,5.60411181640625,0.0024176177103072405,-0.003819771809503436,0.005575594026595354
1672829353518161000,5.614160888671875,0.00637960247695446,-0.005801429972052574,0.0036972665693610907
1672829353528208600,5.624208740234375,0.015046327374875546,0.03680595010519028,2.6631610694494157e-7
1672829353538257000,5.6342568359375,0.015633022412657738,0.022887738421559334,0.001529453438706696
1672829353548305700,5.6443056640625,0.07756003737449646,0.0035473306197673082,-0.0016018913593143225
1672829353558354000,5.65435400390625,0.27930912375450134,-0.01872255466878414,0.0033212280832231045
1672829353568402000,5.66440185546875,0.43746015429496765,-0.012881177477538586,0.004369714763015509
1672829353578451000,5.674450927734375,0.5325056910514832,-0.007638212293386459,-0.00044767739018425345
1672829353588499000,5.6844990234375,0.6035987734794617,-0.0037651772145181894,-0.0018048242200165987
1672829353598546700,5.694546630859375,0.6821868419647217,0.012830045074224472,-0.005751096177846193
1672829353608595000,5.704594970703125,0.8131815791130066,0.009827330708503723,-0.009384446777403355
1672829353618643700,5.714643798828125,1.0199507474899292,-0.004174771253019571,-0.004509264137595892
1672829353628692000,5.72469189453125,1.19712495803833,0.020869862288236618,0.00019334549142513424
1672829353638739700,5.73473974609375,1.4251723289489746,-0.010187656618654728,-0.01437947154045105
1672829353648789000,5.7447890625,1.6262388229370117,-0.002591255819424987,-0.0062304651364684105
1672829353658836700,5.754836669921875,1.7990885972976685,-0.003772367723286152,-0.002291117561981082
1672829353668884700,5.764884765625,1.9664653539657593,0.001614940818399191,-0.0018471685471013188
1672829353678933000,5.77493310546875,2.092228889465332,0.01961258426308632,0.0022650184109807014
1672829353688981800,5.784981689453125,2.214937210083008,0.0013986921403557062,-0.0029433255549520254
1672829353699030000,5.795030029296875,2.3737316131591797,0.011656922288239002,0.0002681803307496011
1672829353709077800,5.805077880859375,2.552332878112793,0.004821653012186289,-0.0018306568963453174
1672829353719127000,5.815126953125,2.718327760696411,0.00012756542128045112,0.007999070920050144
1672829353729174800,5.8251748046875,2.8301339149475098,0.0018985675415024161,0.008609999902546406
1672829353739223000,5.83522314453125,2.894479274749756,0.000907338981050998,0.0021851237397640944
1672829353749271000,5.84527099609375,2.9381117820739746,0.0024264061357825994,-0.003471430391073227
1672829353759319800,5.85531982421875,2.9720542430877686,0.03567463904619217,-0.0036938043776899576
1672829353769367800,5.865367919921875,2.9920477867126465,0.03672605752944946,0.003070092061534524
1672829353779415800,5.875415771484375,3.0096073150634766,0.023371901363134384,-0.0018884475575760007
1672829353789464800,5.88546484375,2.976267099380493,0.01672971062362194,0.0002937466779258102
1672829353799512800,5.895512939453125,2.892408609390259,-0.010359164327383041,-0.0010255833622068167
1672829353809560800,5.905560791015625,2.774463653564453,0.009309612214565277,-0.001985120354220271
1672829353819609900,5.91560986328125,2.6512503623962402,0.029354427009820938,-0.0036583843175321817
1672829353829657900,5.925657958984375,2.5404465198516846,0.027053987607359886,-0.005163602996617556
1672829353839705900,5.935705810546875,2.424103260040283,-0.031372036784887314,0.003469299990683794
1672829353849753900,5.94575390625,2.2630834579467773,-0.005540173966437578,0.0046299053356051445
1672829353859803000,5.955802978515625,2.07989501953125,0.013516874052584171,0.005464540328830481
1672829353869851000,5.965850830078125,1.9066156148910522,0.010331733152270317,0.000011984225238848012
1672829353879899000,5.97589892578125,1.7420461177825928,0.015658853575587273,-0.0030927290208637714
1672829353889948000,5.985947998046875,1.5651421546936035,0.029499834403395653,0.000010386328540334944
1672829353899996000,5.995995849609375,1.3760827779769897,0.012624981813132763,0.0006673881434835494
1672829353910044000,6.0060439453125,1.1714973449707031,-0.0027563716284930706,0.004192081745713949
1672829353920092000,6.016091796875,0.9748751521110535,0.011010573245584965,0.0016644756542518735
1672829353930141000,6.026140869140625,0.7897686958312988,-0.009936786256730556,0.0027172232512384653
1672829353940189000,6.03618896484375,0.6195489764213562,-0.009730391204357147,0.0035782232880592346
1672829353950236700,6.046236572265625,0.4570479691028595,-0.017721472308039665,0.004750280175358057
1672829353960286000,6.056285888671875,0.3079809844493866,-0.022994264960289,0.005403819959610701
1672829353970333700,6.066333740234375,0.1612679809331894,-0.033435188233852386,0.003138535423204303
1672829353980382000,6.0763818359375,0.01014105137437582,-0.03167217597365379,0.005121791269630194
1672829353990430700,6.0864306640625,-0.05167491361498833,-0.028299547731876373,0.009735452011227608
1672829354000479000,6.09647900390625,-0.0011379687348380685,-0.05343259871006012,0.006040581967681646
1672829354010527000,6.10652685546875,-0.0034317492973059416,-0.029338447377085686,0.009966880083084106
1672829354020574700,6.11657470703125,-0.0028943235520273447,-0.0474063977599144,0.012295814231038094
1672829354030624000,6.1266240234375,-0.0019824570044875145,-0.022905049845576286,0.00959696713835001
1672829354040671700,6.136671630859375,-0.005620601586997509,-0.016104934737086296,0.01179514080286026
1672829354050720000,6.146719970703125,-0.003961452282965183,-0.016144081950187683,0.0062515041790902615
1672829354060768800,6.156768798828125,-0.033670347183942795,0.0038253646343946457,0.006175870541483164
1672829354070817000,6.166817138671875,-0.14696760475635529,0.003447728231549263,0.005257612559944391
1672829354080865000,6.176864990234375,-0.2545180320739746,-0.005767341703176498,0.007223291788250208
1672829354090912800,6.186912841796875,-0.3409818112850189,-0.008331699296832085,0.009814014658331871
1672829354100962000,6.196962158203125,-0.4013788402080536,-0.008326373063027859,0.005510080140084028
1672829354111009800,6.207009765625,-0.45990023016929626,-0.00024341292737517506,0.006705040577799082
1672829354121058000,6.21705810546875,-0.5185068249702454,-0.005054146982729435,0.006849117577075958
1672829354131106800,6.22710693359375,-0.5769203305244446,-0.01124892570078373,0.005163869354873896
1672829354141155000,6.237155029296875,-0.6230068802833557,-0.0101415840908885,0.007438208907842636
1672829354151202800,6.247202880859375,-0.6621004343032837,-0.0022884542122483253,0.005848301574587822
1672829354161250800,6.257250732421875,-0.7300124168395996,-0.013196229003369808,0.008767658844590187
1672829354171299800,6.2672998046875,-0.8098017573356628,-0.010817227885127068,0.002558498876169324
1672829354181347800,6.277347900390625,-0.9142035245895386,-0.010482735000550747,0.008942628279328346
1672829354191396000,6.28739599609375,-1.0193490982055664,-0.015596270561218262,0.003194727934896946
1672829354201444900,6.29744482421875,-1.1203612089157104,-0.0124247120693326,0.010982610285282135
1672829354211492900,6.307492919921875,-1.2322403192520142,-0.021526064723730087,0.007172158919274807
1672829354221540900,6.317540771484375,-1.3445967435836792,-0.009644637815654278,0.009221461601555347
1672829354231590000,6.32758984375,-1.4449912309646606,-0.015562714077532291,0.005456816870719194
1672829354241638000,6.337637939453125,-1.5780997276306152,-0.022900255396962166,0.01040576957166195
1672829354251686000,6.347685791015625,-1.7602096796035767,-0.018763035535812378,0.007270429749041796
1672829354261734000,6.35773388671875,-1.9398130178451538,-0.01690441556274891,0.0056890444830060005
1672829354271783000,6.367782958984375,-2.0679996013641357,-0.022609172388911247,0.009039567783474922
1672829354281831000,6.377830810546875,-2.142056465148926,-0.018577944487333298,0.0017206683987751603
1672829354291879000,6.38787890625,-2.1790032386779785,-0.03062635287642479,0.004862932022660971
1672829354301927700,6.397927734375,-2.1939001083374023,-0.03007747419178486,0.012662531808018684
1672829354311976000,6.407975830078125,-2.1824910640716553,-0.028181836009025574,0.013174124993383884
1672829354322024000,6.41802392578125,-2.1423380374908447,-0.035958532243967056,0.005854426883161068
1672829354332071700,6.42807177734375,-2.0861599445343018,-0.028553348034620285,0.00812130980193615
1672829354342121000,6.438120849609375,-2.0062949657440186,-0.022903984412550926,-0.002766757970675826
1672829354352168700,6.448168701171875,-1.8833755254745483,-0.020866665989160538,0.005426723510026932
1672829354362217000,6.458217041015625,-1.7325023412704468,-0.016161926090717316,0.008905078284442425
1672829354372265700,6.468265625,-1.612106442451477,-0.003462375607341528,0.012255067937076092
1672829354382314000,6.47831396484375,-1.548584222793579,-0.0022477079182863235,0.006471747532486916
1672829354392362000,6.488362060546875,-1.565260887145996,-0.007743407040834427,0.010298177599906921
1672829354402411000,6.498410888671875,-1.6304329633712769,-0.003367833560332656,0.0033577135764062405
1672829354412459000,6.508458984375,-1.701456904411316,-0.011885954067111015,0.01179327629506588
1672829354422506800,6.5185068359375,-1.7496166229248047,-0.003965713083744049,0.008951683528721333
1672829354432555000,6.528554931640625,-1.7800179719924927,0.003419232554733753,0.007740477565675974
1672829354442603800,6.538603759765625,-1.8049392700195312,-0.007496532052755356,0.012257731519639492
1672829354452652000,6.548652099609375,-1.8331443071365356,-0.0027254789602011442,0.014913968741893768
1672829354462699800,6.55869970703125,-1.8553580045700073,-0.01019857544451952,0.008508000522851944
1672829354472749000,6.5687490234375,-1.8659329414367676,0.0009765811264514923,0.004113518632948399
1672829354482796800,6.578796875,-1.8820698261260986,-0.014655109494924545,0.009179916232824326
1672829354492844800,6.5888447265625,-1.9332075119018555,-0.0041792988777160645,0.019043998792767525
1672829354502893000,6.59889306640625,-2.0212762355804443,-0.009887518361210823,0.007832090370357037
1672829354512941800,6.60894189453125,-2.1463778018951416,-0.00905474741011858,0.004953745752573013
1672829354522990000,6.618989990234375,-2.2762725353240967,-0.0036389431916177273,0.006431267596781254
1672829354533037800,6.629037841796875,-2.397998094558716,-0.011239338666200638,0.011786618269979954
1672829354543087000,6.639087158203125,-2.4498085975646973,-0.00811864621937275,0.008530637249350548
1672829354553134800,6.649134765625,-2.4379916191101074,-0.014302772469818592,0.008510664105415344
1672829354563182800,6.659182861328125,-2.403895854949951,-0.006471747532486916,0.0065108961425721645
1672829354573231000,6.669231201171875,-2.3563454151153564,-0.006561762653291225,0.00643686018884182
1672829354583279900,6.67927978515625,-2.2776105403900146,-0.003221093211323023,0.004454136826097965
1672829354593327900,6.689327880859375,-2.185600519180298,0.0020652813836932182,0.009557286277413368
1672829354603375900,6.6993759765625,-2.119074821472168,0.0006133259739726782,0.009829461574554443
1672829354613425000,6.7094248046875,-2.059971332550049,-0.013736585155129433,0.008823585696518421
1672829354623473000,6.719472900390625,-2.002235174179077,-0.005815012380480766,0.010753045789897442
1672829354633521000,6.72952099609375,-1.9615014791488647,0.0017725999932736158,0.009875001385807991
1672829354643570000,6.73956982421875,-1.9381448030471802,-0.006471215281635523,0.008431035093963146
1672829354653618000,6.749617919921875,-1.9448825120925903,-0.005169728305190802,0.00755086075514555
1672829354663666000,6.759666015625,-1.9299941062927246,-0.01762959361076355,0.012101403437554836
1672829354673714000,6.7697138671875,-1.8792386054992676,-0.022637933492660522,0.013264406472444534
1672829354683762700,6.7797626953125,-1.8311594724655151,-0.01780562847852707,0.006042446009814739
1672829354693811000,6.78981103515625,-1.78999924659729,-0.016683105379343033,0.004612861201167107
1672829354703859000,6.79985888671875,-1.7556822299957275,-0.022702116519212723,0.006375607568770647
1672829354713908000,6.809907958984375,-1.7349879741668701,-0.015988552942872047,0.005043228156864643
1672829354723956000,6.8199560546875,-1.7136211395263672,-0.021922342479228973,0.0075913406908512115
1672829354734003700,6.830003662109375,-1.6933504343032837,-0.019567308947443962,0.008741825819015503
1672829354744052500,6.840052490234375,-1.652974247932434,-0.044010866433382034,0.005825398489832878
1672829354754101500,6.8501015625,-1.5842143297195435,-0.01954680308699608,0.0033361418172717094
1672829354764149500,6.8601494140625,-1.4760268926620483,-0.025261148810386658,0.008086688816547394
1672829354774197500,6.870197509765625,-1.3553966283798218,-0.012479039840400219,0.002749181119725108
1672829354784246500,6.88024658203125,-1.270934820175171,-0.006867227144539356,0.0022149509750306606
1672829354794294500,6.89029443359375,-1.2604328393936157,-0.01943441852927208,0.010267284698784351
1672829354804342500,6.900342529296875,-1.321838140487671,-0.005586779210716486,0.0035547874867916107
1672829354814390500,6.910390625,-1.391754150390625,-0.019535884261131287,0.0007387608638964593
1672829354824439600,6.920439453125,-1.4173321723937988,-0.03440750762820244,0.015631690621376038
1672829354834487600,6.930487548828125,-1.402443289756775,-0.02311091125011444,0.008349542506039143
1672829354844535600,6.94053564453125,-1.3727940320968628,-0.026514431461691856,0.006880809087306261
1672829354854584600,6.95058447265625,-1.3137885332107544,-0.018681809306144714,0.006262689363211393
1672829354864632600,6.960632568359375,-1.2265228033065796,-0.02611708827316761,0.0025276062078773975
1672829354874680600,6.9706806640625,-1.1520456075668335,-0.013921407982707024,0.010098973289132118
1672829354884729600,6.9807294921875,-1.1331130266189575,-0.018278606235980988,0.012685967609286308
1672829354894777600,6.990777587890625,-1.1419107913970947,0.004025900736451149,-0.0006905576447024941
1672829354904825300,7.000825439453125,-1.1713263988494873,-0.02924044243991375,0.00011877698125317693
1672829354914873600,7.01087353515625,-1.1953129768371582,-0.0026676885318011045,0.002472745021805167
1672829354924922400,7.02092236328125,-1.2090226411819458,-0.01840910129249096,0.006310360040515661
1672829354934970600,7.030970703125,-1.2499860525131226,-0.026038790121674538,0.003379018744453788
1672829354945018600,7.0410185546875,-1.3022830486297607,-0.01497974805533886,0.008419583551585674
1672829354955067600,7.051067626953125,-1.3412991762161255,-0.025134647265076637,0.007729825098067522
1672829354965115600,7.06111572265625,-1.3465533256530762,-0.012380236759781837,0.012526710517704487
1672829354975163400,7.071163330078125,-1.3162766695022583,-0.016272446140646935,0.00950934924185276
1672829354985211600,7.081211669921875,-1.278335690498352,-0.006322877015918493,0.002977414056658745
1672829354995260400,7.091260498046875,-1.2285000085830688,-0.004150536376982927,0.007165235001593828
1672829355005308700,7.10130859375,-1.1777420043945312,-0.001415736391209066,-0.00044528054422698915
1672829355015356400,7.1113564453125,-1.1636642217636108,0.010860104113817215,-0.004858404863625765
1672829355025405400,7.121405517578125,-1.1853141784667969,-0.004520716145634651,-0.0036461339332163334
1672829355035453400,7.131453369140625,-1.2168883085250854,-0.02334234118461609,0.011423896066844463
1672829355045501400,7.14150146484375,-1.230677604675293,-0.03514067828655243,0.010143447667360306
1672829355055550500,7.151550537109375,-1.1932860612869263,-0.02611708827316761,-0.0007142598042264581
1672829355065598500,7.161598388671875,-1.1130831241607666,-0.03945552930235863,0.007433947641402483
1672829355075646500,7.171646484375,-1.0377612113952637,0.008391620591282845,0.005618470720946789
1672829355085694500,7.181694580078125,-0.952648401260376,-0.02364008128643036,0.005871737375855446
1672829355095743500,7.191743408203125,-0.8946548700332642,-0.009370066225528717,-0.029318207874894142
1672829355105791500,7.20179150390625,-0.9230508208274841,0.002376604825258255,-0.00933144986629486
1672829355115839500,7.211839599609375,-0.983575165271759,-0.010846256278455257,0.006370814051479101
1672829355125888500,7.221888427734375,-1.0483554601669312,-0.023672040551900864,0.004539890680462122
1672829355135936500,7.2319365234375,-1.0513230562210083,-0.0217170137912035,0.0027206854429095984
1672829355145984500,7.241984619140625,-0.9833431839942932,-0.013018596917390823,0.005461877211928368
1672829355156032500,7.252032470703125,-0.8623637557029724,-0.002725212834775448,0.005888781975954771
1672829355166081500,7.26208154296875,-0.7669616341590881,-0.006256031803786755,0.0024232103023678064
1672829355176129500,7.272129638671875,-0.7418285608291626,-0.002238120650872588,-0.0003504719934426248
1672829355186177500,7.282177490234375,-0.7342897057533264,-0.028182368725538254,0.006846454460173845
1672829355196226600,7.2922265625,-0.7377321124076843,-0.01908101700246334,0.02263447269797325
1672829355206274600,7.302274658203125,-0.7361440658569336,-0.0005914880894124508,-0.0003067961661145091
1672829355216322300,7.312322265625,-0.7428025007247925,0.003450657706707716,0.006198773626238108
1672829355226370600,7.32237060546875,-0.7440168857574463,-0.015084942802786827,0.0018066884949803352
1672829355236419300,7.33241943359375,-0.7163287997245789,-0.012459066696465015,0.009428655728697777
1672829355246467600,7.342467529296875,-0.6040493845939636,-0.021627264097332954,-0.0062605589628219604
1672829355256515600,7.352515625,-0.4418905973434448,0.0008649947121739388,-0.003549194661900401
1672829355266564600,7.362564697265625,-0.25994715094566345,-0.0030213561840355396,0.004193679895251989
1672829355276612600,7.372612548828125,-0.08259953558444977,0.013302755542099476,-0.00006684534309897572
1672829355286660400,7.382660400390625,0.012764531187713146,0.01685727760195732,0.009311476722359657
1672829355296708600,7.39270849609375,-0.036551885306835175,-0.020851751789450645,0.011079815216362476
1672829355306757400,7.40275732421875,-0.18090853095054626,-0.023564448580145836,0.004492486361414194
1672829355316805600,7.4128056640625,-0.3316604793071747,0.012651080265641212,0.006139118690043688
1672829355326853600,7.422853515625,-0.41187384724617004,-0.047155529260635376,0.022013423964381218
1672829355336902700,7.432902587890625,-0.40627002716064453,-0.0171494260430336,0.017063671723008156
1672829355346950700,7.44295068359375,-0.35023072361946106,0.009149023331701756,0.01209607720375061
1672829355356998400,7.452998291015625,-0.3166474401950836,-0.039026226848363876,0.016087889671325684
1672829355367046700,7.463046630859375,-0.37049469351768494,0.025896845385432243,0.009789247065782547
1672829355377095400,7.473095458984375,-0.48238927125930786,0.013274259865283966,0.000002663161012605997
1672829355387143700,7.483143798828125,-0.5252741575241089,0.034813374280929565,0.003967843484133482
1672829355397191400,7.49319140625,-0.449280321598053,0.03539127856492996,0.0003683151735458523
1672829355407240700,7.50324072265625,-0.30344483256340027,0.0380278080701828,0.0029790119733661413
1672829355417288400,7.513288330078125,-0.13745932281017303,0.03232251852750778,0.00012357067316770554
1672829355427336400,7.52333642578125,0.01810763031244278,0.013642042875289917,0.0006572681595571339
1672829355437385500,7.533385498046875,0.005251220893114805,0.009869675152003765,0.0021976404823362827
1672829355447433500,7.54343359375,-0.0003427488263696432,0.008672583848237991,0.0010271812789142132
1672829355457481700,7.553481689453125,0.00307568465359509,0.009884322062134743,0.003409378696233034
1672829355467529500,7.563529541015625,0.002177400514483452,0.010215086862444878,0.0044176517985761166
1672829355477578500,7.57357861328125,0.0025680861435830593,0.004094077739864588,0.007674697786569595
1672829355487626500,7.58362646484375,0.0036996633280068636,-0.0023212111555039883,0.007632619701325893
1672829355497674500,7.593674560546875,0.00563977612182498,-0.007234210614115,0.011746671050786972
1672829355507723500,7.6037236328125,0.005077849142253399,-0.008866994641721249,0.012658004648983479
1672829355517771500,7.613771484375,0.006139385048300028,-0.012956544756889343,0.012960805557668209
1672829355527819500,7.623819580078125,0.0063124909065663815,-0.010686200112104416,0.01128168310970068
1672829355537867500,7.633867431640625,0.0008607336785644293,-0.01004890538752079,0.007660849019885063
1672829355547916300,7.643916259765625,0.001543834456242621,0.0002519350382499397,0.010884605348110199
1672829355557964500,7.653964599609375,0.0013347762869670987,-0.002273007994517684,0.007383613847196102
1672829355568012500,7.664012451171875,0.0007115966291166842,0.0032144354190677404,0.007241134997457266
1672829355578061600,7.6740615234375,0.0008519452530890703,-0.0041313618421554565,0.00914556160569191
1672829355588109600,7.684109619140625,0.0010274475207552314,-0.003245328087359667,0.0076246303506195545
1672829355598157300,7.6941572265625,0.004338289611041546,-0.0002580603177193552,0.008894691243767738
1672829355608205600,7.70420556640625,0.004819788970053196,-0.002111886627972126,0.005860285833477974
1672829355618254300,7.71425439453125,0.003460777923464775,0.008177502080798149,0.0027896612882614136
1672829355628302600,7.724302490234375,0.004428304266184568,0.009617207571864128,0.0031521173659712076
1672829355638350600,7.7343505859375,0.0022338596172630787,0.008596683852374554,0.005559348501265049
1672829355648399600,7.744399658203125,0.0018008295446634293,0.0007403587806038558,0.003621100215241313
1672829355658447600,7.754447509765625,-0.0003097256412729621,0.006307696923613548,0.006961769424378872
1672829355668495400,7.764495361328125,0.000830107310321182,0.00012357067316770554,0.006323942448943853
1672829355678543600,7.774543701171875,-0.00027057717670686543,0.0022327941842377186,0.005072522908449173
1672829355688592400,7.78459228515625,0.0002468750171829015,0.0059662796556949615,0.0024796691723167896
1672829355698640600,7.794640625,-0.0024679512716829777,0.005500758998095989,0.005899168085306883
1672829355708688400,7.8046884765625,0.001076715998351574,0.003943076357245445,0.006013683974742889
1672829355718737700,7.814737548828125,0.0014671353856101632,0.002412024885416031,0.005356415640562773
1672829355728785400,7.824785400390625,0.00250523560680449,-0.0011408982099965215,0.010059292428195477
1672829355738833400,7.83483349609375,0.001130245509557426,0.0009249158320017159,0.007852597162127495
1672829355748885500,7.844885498046875,0.0008636631537228823,-0.0021044297609478235,0.006418484263122082
1672829355758934500,7.8549345703125,0.004256263840943575,-0.011325891129672527,0.008771919645369053
1672829355768982500,7.864982421875,0.00018216021999251097,-0.006923419889062643,0.009049687534570694
1672829355779030500,7.875030517578125,0.0034906051587313414,-0.0038666436448693275,0.007384146563708782
1672829355789079600,7.88507958984375,0.0007400924805551767,-0.003841077210381627,0.006710899528115988
1672829355799127600,7.89512744140625,0.003649862250313163,-0.0057015614584088326,0.0056978329084813595
1672829355809175600,7.905175537109375,0.0015765913994982839,-0.005819805897772312,0.00974663719534874
1672829355819224600,7.915224609375,0.0015632755821570754,0.0014599448768422008,0.007503989152610302
1672829355829272600,7.9252724609375,-0.0004972121678292751,-0.0041761030443012714,0.0054546864703297615
1672829355839320600,7.935320556640625,0.001222657272592187,0.002159557305276394,0.005106344819068909
1672829355849368600,7.94536865234375,0.0018642127979546785,-0.0037907434161752462,0.008525044657289982
1672829355859416600,7.95541650390625,0.002924949862062931,-0.00436119269579649,0.00503870053216815
1672829355869464600,7.965464599609375,0.0005717806634493172,-0.007089334540069103,0.006454170681536198
1672829355879512600,7.9755126953125,0.002855707658454776,-0.00953944306820631,0.009937585331499577
1672829355889560600,7.985560546875,0.0044046021066606045,-0.011452658101916313,0.007054180838167667
1672829355899609600,7.995609619140625,0.006163353566080332,-0.013843643479049206,0.008980711922049522
1672829355909657600,8.00565771484375,0.007309844717383385,-0.017173660919070244,0.006334861274808645
1672829355919705600,8.01570556640625,0.0043926178477704525,-0.01194214727729559,0.008317052386701107
1672829355929754400,8.02575439453125,0.005825931206345558,-0.0170303825289011,0.009824667125940323
1672829355939802600,8.035802734375,0.0026383937802165747,-0.0106491819024086,0.0059660132974386215
1672829355949850600,8.0458505859375,0.0007837683078832924,-0.014299310743808746,0.006383863277733326
1672829355959899600,8.055899658203124,-0.00007776429993100464,-0.01390090212225914,0.004058391321450472
1672829355969947600,8.06594775390625,0.00012916330888401717,0.00021917815320193768,0.0034048515371978283
1672829355979995400,8.075995361328125,0.002487925114110112,0.0033214944414794445,0.0006056028068996966
1672829355990043600,8.086043701171874,0.008069644682109356,0.01317998394370079,-0.000027164242055732757
1672829356000092400,8.096092529296875,0.01353471726179123,0.023013707250356674,-0.002829076023772359
1672829356010140700,8.106140625,0.05236919969320297,0.005891445092856884,-0.004667722620069981
1672829356020188700,8.116188720703125,0.31675371527671814,-0.00042637207661755383,-0.008845156989991665
1672829356030237700,8.12623779296875,0.4894687533378601,0.00700730923563242,-0.004826446995139122
1672829356040285700,8.13628564453125,0.560381293296814,0.008590025827288628,-0.005143895745277405
1672829356050333400,8.14633349609375,0.5677998065948486,0.0011326423846185207,-0.003963316325098276
1672829356060381700,8.156381591796874,0.5323416590690613,0.01005103625357151,-0.001904160133562982
1672829356070430500,8.166430419921875,0.49823030829429626,0.014911571517586708,-0.003571032779291272
1672829356080478700,8.176478759765626,0.49461665749549866,-0.0016586167039349675,-0.009701096452772617
1672829356090526500,8.1865263671875,0.4919881224632263,0.016980048269033432,-0.0025393241085112095
1672829356100575700,8.19657568359375,0.5321517586708069,0.004820588044822216,-0.0035981968976557255
1672829356110623500,8.20662353515625,0.5589176416397095,0.03868241608142853,-0.007337541319429874
1672829356120671500,8.21667138671875,0.5777584314346313,-0.013894776813685894,-0.0016010924009606242
1672829356130719700,8.2267197265625,0.5799986720085144,-0.0016487629618495703,0.00512818293645978
1672829356140768500,8.2367685546875,0.5662511587142944,0.000023968450477696024,0.00006444849714171141
1672829356150816800,8.246816650390626,0.5501419901847839,0.001204547705128789,-0.0026703516487032175
1672829356160864500,8.256864501953125,0.5640631318092346,0.009455819614231586,-0.0017899106023833156
1672829356170913800,8.266913818359376,0.6357865333557129,-0.007758853491395712,-0.002141980454325676
1672829356180961500,8.27696142578125,0.740379810333252,0.007556453347206116,0.007442469708621502
1672829356191009500,8.287009521484375,0.8646295666694641,-0.01571637950837612,0.0000125168571685208
1672829356201057800,8.297057861328126,0.9578894972801208,-0.006031527183949947,0.013132579624652863
1672829356211106600,8.3071064453125,1.0286561250686646,-0.014542457647621632,-0.0027976506389677525
1672829356221154800,8.31715478515625,1.0884677171707153,-0.011186874471604824,0.00586587842553854
1672829356231202600,8.32720263671875,1.1609094142913818,0.003373159794136882,0.010865963064134121
1672829356241251600,8.33725146484375,1.2586445808410645,-0.016230102628469467,0.013263873755931854
1672829356251299600,8.347299560546874,1.3681894540786743,-0.01067821029573679,0.0062243398278951645
1672829356261347600,8.35734765625,1.5245758295059204,0.004171042703092098,0.004368915688246489
1672829356271395600,8.3673955078125,1.7217069864273071,0.026577282696962357,0.006563626695424318
1672829356281444600,8.377444580078125,1.9139829874038696,-0.008102401159703732,-0.0029875340405851603
1672829356291492600,8.38749267578125,2.0968122482299805,0.02142805978655815,-0.004653075244277716
1672829356301540600,8.39754052734375,2.2312393188476562,0.015517440624535084,0.00902838259935379
1672829356311589600,8.407589599609375,2.2772066593170166,0.015140869654715061,-0.0016785904299467802
1672829356321637600,8.4176376953125,2.244375467300415,-0.0282132625579834,0.017601896077394485
1672829356331685600,8.427685546875,2.209095001220703,0.007940747775137424,0.003381948219612241
1672829356341733600,8.437733642578126,2.219371795654297,0.01073679979890585,0.00803449098020792
1672829356351782700,8.44778271484375,2.2548482418060303,0.009832390584051609,0.009110674262046814
1672829356361830700,8.45783056640625,2.298210620880127,0.007125020958483219,-0.0016815199051052332
1672829356371878700,8.467878662109374,2.3366479873657227,0.0136625487357378,-0.012255334295332432
1672829356381927400,8.477927490234375,2.331982135772705,-0.02285578101873398,0.002444781828671694
1672829356391975700,8.4879755859375,2.282810688018799,0.016095079481601715,0.0007084008539095521
1672829356402023700,8.498023681640625,2.236171245574951,-0.007667773403227329,-0.004550276789814234
1672829356412071700,8.50807177734375,2.231755495071411,-0.006351372692734003,0.012300075963139534
1672829356422120400,8.518120361328124,2.259427785873413,-0.012182097882032394,-0.004069842863827944
1672829356432168400,8.52816845703125,2.3123180866241455,-0.0011994877131655812,0.002801911672577262
1672829356442216700,8.538216796875,2.357637882232666,-0.008381767198443413,-0.0029875340405851603
1672829356452265500,8.548265380859375,2.35607647895813,-0.002679672557860613,0.005115932319313288
1672829356462313700,8.558313720703126,2.299772262573242,-0.01631505787372589,0.005647233221679926
1672829356472361500,8.568361572265625,2.196390151977539,-0.007801730185747147,-0.0030924626626074314
1672829356482409700,8.57840966796875,2.0934641361236572,0.0014615427935495973,0.004345213528722525
1672829356492458500,8.58845849609375,2.041003704071045,0.0027348001021891832,0.003266899613663554
1672829356502506500,8.598506591796875,2.011552572250366,-0.005616340320557356,0.005637113004922867
1672829356512554800,8.6085546875,2.001650333404541,-0.00046392265358008444,0.0038599856197834015
1672829356522603500,8.618603515625,2.046185255050659,-0.005008873529732227,0.00920468382537365
1672829356532651800,8.62865185546875,2.1180920600891113,0.014991732314229012,0.0018239989876747131
1672829356542701600,8.63870166015625,2.198061227798462,0.003976631909608841,0.00018109494703821838
1672829356552750600,8.64875048828125,2.226781129837036,0.004141747951507568,-0.0009230516152456403
1672829356562798600,8.658798583984375,2.1798439025878906,0.00034727618913166225,0.005739111918956041
1672829356572846600,8.6688466796875,2.0889673233032227,0.014050571247935295,0.007743140682578087
1672829356582894600,8.67889453125,2.0020625591278076,-0.012952816672623158,-0.0009419600828550756
1672829356592943600,8.688943603515625,1.909164547920227,0.01726260967552662,0.004081827122718096
1672829356602991600,8.69899169921875,1.7950421571731567,0.001823466387577355,0.007640609052032232
1672829356613039600,8.70903955078125,1.7133945226669312,0.0030980552546679974,0.004574245307594538
1672829356623088600,8.719088623046876,1.6966568231582642,0.008245945908129215,0.00509782275184989
1672829356633136400,8.729136474609374,1.7472178936004639,0.004602208733558655,-0.002204298507422209
1672829356643184600,8.7391845703125,1.824434757232666,-0.0003502056933939457,0.007787615526467562
1672829356653232600,8.749232666015626,1.8554461002349854,-0.0026549051981419325,-0.0025398568250238895
1672829356663281700,8.75928173828125,1.7993685007095337,0.016101205721497536,0.00022157499915920198
1672829356673329700,8.76932958984375,1.6648077964782715,0.006807039491832256,0.0006825681775808334
1672829356683377400,8.77937744140625,1.518186092376709,0.009430785663425922,0.0024522386956959963
1672829356693426700,8.7894267578125,1.4336960315704346,0.01332699041813612,-0.0026341325137764215
1672829356703474400,8.799474365234374,1.4418764114379883,0.004534298088401556,0.002516687149181962
1672829356713522700,8.809522705078125,1.5156092643737793,0.02305152267217636,-0.005410744342952967
1672829356723570700,8.81957080078125,1.5988383293151855,0.00652714166790247,0.002971288748085499
1672829356733619700,8.82961962890625,1.6495965719223022,0.011272095143795013,0.004246144089847803
1672829356743663900,8.839663818359375,1.6690224409103394,0.01468733325600624,0.0013161342358216643
1672829356753711600,8.849711669921875,1.6668317317962646,0.005074919667094946,0.007405451964586973
1672829356763761000,8.859760986328125,1.6590700149536133,-0.0023318638559430838,0.00436092633754015
1672829356773808600,8.86980859375,1.6525907516479492,0.00663366774097085,0.0010580739472061396
1672829356783856600,8.879856689453124,1.6456633806228638,0.008351939730346203,0.0024205471854656935
1672829356793905000,8.88990478515625,1.6524810791015625,0.01188062783330679,-0.002639458980411291
1672829356803953700,8.89995361328125,1.69756281375885,0.012766927480697632,-0.0020908478181809187
1672829356814002000,8.910001953125,1.7363616228103638,-0.004920190200209618,0.0009587379754520953
1672829356824049700,8.920049560546875,1.7683311700820923,0.011707788333296776,-0.0049470881931483746
1672829356834098700,8.9300986328125,1.8235417604446411,0.007935686968266964,-0.003359045134857297
1672829356844146700,8.940146728515625,1.9005763530731201,0.020171314477920532,-0.003995806910097599
1672829356854194700,8.950194580078126,1.9246742725372314,0.0031430625822395086,0.007113569416105747
1672829356864242700,8.96024267578125,1.8974660634994507,0.0012871057260781527,-0.0013398362789303064
1672829356874291700,8.970291748046876,1.8758691549301147,-0.005531119182705879,-0.004875715356320143
1672829356884339700,8.980339599609374,1.8530826568603516,0.005407548509538174,-0.001234907773323357
1672829356894387700,8.9903876953125,1.8085010051727295,-0.006326339207589626,-0.0005283711361698806
1672829356904436700,9.000436767578124,1.7367980480194092,0.0015307849971577525,0.0013920343481004238
1672829356914484700,9.010484619140625,1.698019027709961,-0.0025939189363271,0.004228300880640745
1672829356924532700,9.02053271484375,1.701232671737671,-0.009406817145645618,0.00012410330236889422
1672829356934580700,9.030580810546875,1.718591332435608,0.0040914141573011875,-0.006871488410979509
1672829356944629800,9.040629638671875,1.7238532304763794,-0.018034927546977997,-0.00011478224041638896
1672829356954677800,9.050677734375,1.702870488166809,-0.0020327907986938953,-0.0041401502676308155
1672829356964725800,9.060725830078125,1.628309965133667,-0.014218617230653763,-0.00012436961696948856
1672829356974774800,9.07077490234375,1.4962235689163208,-0.012741095386445522,-0.002942526713013649
1672829356984822800,9.08082275390625,1.369797706604004,0.005939381662756205,-0.011120295152068138
1672829356994870800,9.090870849609376,1.2254277467727661,-0.00561101408675313,-0.00914582796394825
1672829357004918800,9.100918701171874,1.070529818534851,-0.025168469175696373,-0.006058158818632364
1672829357014967600,9.110967529296875,0.8867298364639282,0.013823670335114002,-0.0033459956757724285
1672829357025015800,9.121015869140624,0.7350103259086609,-0.019897274672985077,0.00025992453447543085
1672829357035063800,9.131063720703125,0.6280346512794495,0.004394748248159885,0.005072256550192833
1672829357045112600,9.141112548828126,0.5235665440559387,-0.021392373368144035,0.005883455276489258
1672829357055160800,9.151160888671875,0.4234023988246918,-0.012942696921527386,0.0020703414920717478
1672829357065208600,9.16120849609375,0.3613118529319763,-0.008553540334105492,0.007015032693743706
1672829357075256800,9.1712568359375,0.3215908110141754,-0.005371595732867718,0.005399559158831835
1672829357085305600,9.1813056640625,0.28161144256591797,-0.004643487744033337,0.0052259210497140884
1672829357095353900,9.191353759765626,0.23645249009132385,-0.002650910522788763,0.005036037415266037
1672829357105401900,9.20140185546875,0.16909368336200714,-0.00944836251437664,0.008329834789037704
1672829357115449600,9.21144970703125,0.07748041301965714,-0.018017349764704704,0.01570039987564087
1672829357125499000,9.221498779296875,-0.014486797153949738,-0.008472314104437828,0.00962812639772892
1672829357135546600,9.231546630859375,-0.05591413006186485,-0.014816762879490852,0.011444934643805027
1672829357145595000,9.241594970703124,-0.03044285997748375,-0.023243537172675133,0.010588196106255054
1672829357155643600,9.2516435546875,-0.001654089312069118,-0.022180136293172836,0.009984989650547504
1672829357165691600,9.261691650390626,-0.0010167949367314577,-0.0027300063520669937,0.0095069520175457
1672829357175739600,9.27173974609375,0.003454119898378849,-0.007096525281667709,0.01016848161816597
1672829357185788700,9.28178857421875,0.000723048229701817,-0.0016104135429486632,0.006700247060507536
1672829357195836700,9.291836669921874,0.0008143946761265397,-0.0006777744856663048,0.006658968050032854
1672829357205884700,9.301884765625,0.0023611586075276136,-0.0035033884923905134,0.005948702804744244
1672829357215932700,9.3119326171875,0.002718554809689522,-0.0011622034944593906,0.008274441584944725
1672829357225981700,9.321981689453125,0.004338023252785206,-0.004129497334361076,0.008673915639519691
1672829357236029700,9.33202978515625,0.0026381274219602346,-0.013478790409862995,0.0070091737434268
1672829357246077700,9.34207763671875,0.001856755930930376,-0.004848817363381386,0.011061172932386398
1672829357256125700,9.352125732421875,0.00732395937666297,-0.02202673815190792,0.01834678277373314
1672829357266174700,9.3621748046875,0.0033308155834674835,-0.0032831449061632156,0.005811283830553293
1672829357276222700,9.37222265625,0.007184143178164959,-0.011769307777285576,0.020607007667422295
1672829357286270700,9.382270751953126,0.009527192451059818,-0.004027764778584242,0.014847922138869762
1672829357296319700,9.39231982421875,0.005388107616454363,0.0027209515683352947,0.007752195466309786
1672829357306367700,9.40236767578125,0.004610730800777674,-0.01185319758951664,0.00415319949388504
1672829357316415700,9.412415771484374,0.0001233043585671112,0.017438644543290138,0.00780625781044364
1672829357326464800,9.42246484375,0.0017528926255181432,-0.009602559730410576,0.005160673521459103
1672829357336512800,9.4325126953125,-0.00044288369826972485,0.03069532848894596,0.00899615790694952
1672829357346560800,9.442560791015625,-0.0000066579027588886674,-0.017911888659000397,0.005390238016843796
1672829357356608500,9.4526083984375,0.0005613943794742227,0.004297276493161917,0.0049129994586110115
1672829357366657800,9.46265771484375,0.0001776328426785767,-0.005524461157619953,0.006577741354703903
1672829357376705500,9.47270556640625,-0.0005102616851218045,-0.0012783173006027937,0.0067873322404921055
1672829357386753800,9.48275390625,0.0028541097417473793,-0.006636597216129303,0.004854143597185612
1672829357396801800,9.4928017578125,0.0006655239267274737,-0.0031912659760564566,0.0078584561124444
1672829357406850800,9.502850830078126,0.0022892532870173454,-0.004147606901824474,0.007001983001828194
1672829357416898800,9.51289892578125,0.002510828198865056,-0.0036011263728141785,0.007417702581733465
1672829357426946600,9.522946533203125,0.0002402171230642125,-0.004776379559189081,0.004226702731102705
1672829357436995800,9.532995849609375,0.0013214604696258903,-0.002668753731995821,0.0079735042527318
1672829357447043600,9.543043701171875,0.0006026733317412436,-0.0041492050513625145,0.006735933478921652
1672829357457091800,9.553091796875,0.002615490462630987,-0.003394465195015073,0.005780124571174383
1672829357467139800,9.563139892578125,0.0024522386956959963,-0.003600327530875802,0.005364671815186739
1672829357477188900,9.57318896484375,0.002555036684498191,-0.004627508576959372,0.007213171571493149
1672829357487236900,9.58323681640625,0.0013483584625646472,-0.0033012544736266136,0.006340453866869211
1672829357497284600,9.59328466796875,0.0037020600866526365,-0.00436172541230917,0.0052147358655929565
1672829357507333600,9.603333740234374,-0.000627707049716264,-0.0043321643024683,0.005810218397527933
1672829357517381600,9.613381591796875,-0.0017299894243478775,-0.0046272422187030315,0.010097641497850418
1672829357527430000,9.623429931640626,0.0017174725653603673,-0.004461593925952911,0.005554821342229843
1672829357537477600,9.6334775390625,0.003375822911038995,-0.006446181330829859,0.008957276120781898
1672829357547527000,9.64352685546875,0.0038163098506629467,-0.0038253646343946457,0.006943393498659134
1672829357557574700,9.65357470703125,0.0010713896481320262,-0.0028157602064311504,0.005531385540962219
1672829357567622700,9.66362255859375,0.000853809411637485,-0.005054146982729435,0.00768748065456748
1672829357577671700,9.673671630859374,0.0027832696214318275,-0.004102866165339947,0.007909588515758514
1672829357587719700,9.6837197265625,0.001882854849100113,-0.005005677696317434,0.008353270590305328
1672829357597768000,9.693767822265626,0.0023105584550648928,-0.0034826158080250025,0.007040865253657103
1672829357607815700,9.703815673828124,0.00166633992921561,-0.003531085327267647,0.010276606306433678
1672829357617864700,9.71386474609375,-0.0009707222343422472,-0.004482898861169815,0.0029111013282090425
1672829357627912700,9.72391259765625,0.0024173513520509005,-0.003896470880135894,0.004975583869963884
1672829357637960700,9.733960693359375,0.004089816473424435,-0.0046418895944952965,0.005341502372175455
1672829357648009700,9.744009765625,0.0023166837636381388,-0.00404614070430398,0.007798800710588694
1672829357658057700,9.7540576171875,0.0029768813401460648,-0.004189684987068176,0.005310076754540205
1672829357668105700,9.764105712890625,0.0022242721170186996,-0.005971073638647795,0.0067662931978702545
1672829357678153700,9.77415380859375,0.0004926847759634256,-0.0062613580375909805,0.010124272666871548
1672829357688202500,9.784202392578125,0.00003861583536490798,-0.004714061506092548,0.008680040948092937
1672829357698250800,9.794250732421874,0.001844505313783884,-0.006810768041759729,0.005152417812496424
1672829357708298800,9.804298828125,0.0004308994684834033,-0.004923386033624411,0.00848829373717308
1672829357718347800,9.81434765625,0.0008772452711127698,-0.003478088416159153,0.003989148885011673
1672829357728395800,9.824395751953125,0.001407480682246387,-0.0034671693574637175,0.006816094275563955
1672829357738443500,9.834443603515625,0.0034091125708073378,-0.004078631289303303,0.0051276502199471
1672829357748491500,9.844491455078124,0.0011448930017650127,-0.004120975267142057,0.006235259119421244
1672829357758540500,9.85454052734375,0.0021411816123872995,-0.003885818412527442,0.007217965554445982
1672829357768588500,9.864588623046876,0.0035350800026208162,-0.004664526786655188,0.006610231939703226
1672829357778636800,9.87463671875,0.0016855146968737245,-0.004699147772043943,0.006220878101885319
1672829357788685600,9.884685546875,0.00452950457111001,-0.0030162963084876537,0.007212106604129076
1672829357798733800,9.89473388671875,0.0022453111596405506,-0.004033357370644808,0.005585980135947466
1672829357808781600,9.904781494140625,-0.00026551715563982725,-0.004216582980006933,0.005822469014674425
1672829357818829600,9.91482958984375,0.0004370247188489884,-0.004552940372377634,0.0057316552847623825
1672829357828878600,9.924878662109375,0.0015403723809868097,-0.005642705596983433,0.004974784795194864
1672829357838926600,9.934926513671876,0.002448244020342827,-0.004878112114965916,0.006235525477677584
1672829357848974600,9.944974609375,0.0025768745690584183,-0.004716191906481981,0.006420881487429142
1672829357859023600,9.955023681640625,0.001967543503269553,-0.003409378696233034,0.007927165366709232
1672829357869071600,9.965071533203124,0.0023158849216997623,-0.0036341496743261814,0.0044168527238070965
1672829357879119600,9.97511962890625,0.0023702133912593126,-0.0031973912846297026,0.006216883193701506
1672829357889167600,9.985167724609376,0.0008855010382831097,-0.006396380253136158,0.00791411567479372
1672829357899216600,9.995216552734375,0.0006029396899975836,-0.004352670628577471,0.008435562252998352
1672829357909264600,10.0052646484375,0.0017845842521637678,-0.004825115203857422,0.007378820329904556
1672829357919312600,10.015312744140624,0.001776328426785767,-0.005311941262334585,0.005900499876588583
1672829357929361700,10.025361572265625,0.0017907095607370138,-0.0035273567773401737,0.008023305796086788
1672829357939409700,10.03540966796875,0.001678057829849422,-0.0055151404812932014,0.008057127706706524
1672829357949457700,10.045457763671875,0.0006250438746064901,-0.003955060616135597,0.006344448775053024
1672829357959505700,10.055505615234376,0.0017084177816286683,-0.005122057627886534,0.007908789440989494
1672829357969554700,10.0655546875,0.002261556452140212,-0.0032924660481512547,0.004968393128365278
1672829357979602700,10.075602783203125,0.0009683253592811525,-0.00595562718808651,0.00509942090138793
1672829357989650700,10.085650634765624,-0.00030839405371807516,-0.0011315771844238043,0.006072806194424629
1672829357999698700,10.09569873046875,0.0008660599705763161,-0.0030509172938764095,0.007192665245383978
1672829358009747700,10.105747802734374,0.0009230516152456403,-0.0037377465050667524,0.006512227933853865
1672829358019795700,10.115795654296875,0.0026016421616077423,-0.0037734329234808683,0.005139634478837252
1672829358029843500,10.125843505859375,0.0022530341520905495,-0.004590224474668503,0.004201935604214668
1672829358039892700,10.135892822265625,0.0008783105295151472,-0.0038922098465263844,0.004483697935938835
1672829358049940500,10.1459404296875,0.0003837615076918155,-0.0028370653744786978,0.008557535707950592
1672829358059988700,10.15598876953125,0.0006415555253624916,-0.004043743945658207,0.00603498937562108
1672829358070036700,10.16603662109375,0.00236328924074769,-0.0054730623960494995,0.005345763172954321
1672829358080085800,10.176085693359376,0.0019329222850501537,-0.0035840822383761406,0.006898385938256979
1672829358090133800,10.1861337890625,0.0012173309223726392,-0.0033044503070414066,0.0051683965139091015
1672829358100181500,10.196181396484375,0.0028304075822234154,-0.0038248319178819656,0.004332696553319693
1672829358110230800,10.206230712890624,0.0008700547041371465,-0.005426190793514252,0.005539108533412218
1672829358120278500,10.216278564453125,0.0032621060963720083,-0.003571032779291272,0.006735667120665312
1672829358130326800,10.226326904296876,0.0021734058391302824,-0.003028813051059842,0.007299458142369986
1672829358140374800,10.236374755859375,0.001023186487145722,-0.0025507756508886814,0.004962267819792032
1672829358150423600,10.246423583984376,0.0019832560792565346,-0.0041284323669970036,0.007967645302414894
1672829358160471600,10.256471435546874,0.0033095101825892925,-0.005659749731421471,0.008504805155098438
1672829358170519600,10.26651953125,0.0037294907961040735,-0.0038549257442355156,0.007692274637520313
1672829358180568600,10.276568603515624,0.0023302659392356873,-0.005914081819355488,0.002698581200093031
1672829358190616600,10.286616455078125,0.001270327833481133,-0.0033862092532217503,0.006413424387574196
1672829358200664800,10.296664794921876,0.003055444685742259,-0.003084739437326789,0.0031228226143866777
1672829358210712600,10.306712646484375,0.0008322378271259367,-0.0000045273736759554595,0.0161235760897398
1672829358220761600,10.31676171875,0.01293550617992878,0.04716325178742409,0.03987577557563782
1672829358230809600,10.3268095703125,0.003561178920790553,0.00006444849714171141,0.009002283215522766
1672829358240857600,10.336857666015625,0.0017896442441269755,-0.023310648277401924,0.006817159708589315
1672829358250906600,10.34690673828125,0.00250523560680449,-0.0007419566973112524,0.006446181330829859
1672829358260954600,10.35695458984375,0.0014426343841478229,-0.021325794979929924,0.007464574184268713
1672829358271002600,10.367002685546876,-0.0015100123127922416,-0.014079865999519825,0.005672266706824303
1672829358281050600,10.377050537109374,0.00166633992921561,-0.024934111163020134,0.00549250328913331
1672829358291099600,10.387099609375,-0.0034615767654031515,-0.006986004300415516,0.011433749459683895
1672829358301147600,10.397147705078124,0.000910268456209451,-0.0004913532175123692,0.009278719313442707
1672829358311195600,10.407195556640625,-0.00022077605535741895,0.008734902366995811,0.014914234168827534
1672829358321244700,10.41724462890625,-0.0005866943974979222,-0.003347327234223485,0.013034841977059841
1672829358331292700,10.427292724609375,0.00006364954606397077,0.00381471193395555,0.012724850326776505
1672829358341340400,10.43734033203125,0.0010974886827170849,0.003719637170433998,0.00862997304648161
1672829358351388700,10.447388671875,0.0022828616201877594,-0.00436119269579649,0.006923153530806303
1672829358361437400,10.4574375,0.004612328484654427,0.01636272855103016,0.008943160995841026
1672829358371485700,10.467485595703126,0.006174272391945124,0.015020760707557201,0.006531136110424995
1672829358381533700,10.47753369140625,0.009137039072811604,-0.05170660465955734,-0.013892912305891514
1672829358391582700,10.487582763671876,0.0070797475054860115,0.015179218724370003,0.0007787083159200847
1672829358401630700,10.497630615234375,-0.018214955925941467,0.05633331462740898,-0.029823675751686096
1672829358411678500,10.507678466796875,-0.03724244236946106,-0.042577821761369705,0.00675217853859067
1672829358421726700,10.517726806640624,-0.13849742710590363,-0.03185407072305679,-0.011024155654013157
1672829358431775500,10.527775390625,-0.05416283756494522,0.008283229544758797,-0.02821379527449608
1672829358441823700,10.53782373046875,-0.003525226376950741,-0.020592093467712402,-0.013500362634658813
1672829358451871700,10.547871826171875,-0.002463690238073468,0.020615529268980026,-0.012825516983866692
1672829358461920800,10.557920654296876,-0.006840062793344259,0.020052803680300713,-0.009241435676813126
1672829358471968800,10.56796875,0.00035979304811917245,0.00011611382069531828,-0.00008974852971732616
1672829358482016500,10.5780166015625,0.00216488353908062,0.0020695424173027277,0.0015731292078271508
1672829358492064800,10.588064697265626,0.0016250609187409282,-0.013980263844132423,-0.008747418411076069
1672829358502113500,10.598113525390625,-0.00033875409280881286,-0.0034261567052453756,-0.0012447615154087543
1672829358512161800,10.608161865234376,0.0026264095213264227,-0.000483363721286878,0.005097024142742157
1672829358522209500,10.61820947265625,0.002885801251977682,-0.0027505126781761646,0.003207244910299778
1672829358532258800,10.6282587890625,0.006135923322290182,-0.008729309774935246,0.00504109775647521
1672829358542306600,10.638306640625,0.004732969682663679,-0.004159058444201946,0.0024429175537079573
1672829358552354600,10.6483544921875,0.004520982038229704,-0.01176344882696867,-0.003376888344064355
1672829358562402800,10.65840283203125,0.005056543741375208,-0.012852415442466736,-0.005093029234558344
1672829358572451600,10.66845166015625,0.006000900641083717,-0.0075969332829117775,-0.0015374429058283567
1672829358582499800,10.678499755859375,0.0030474551022052765,0.0024860608391463757,0.002920954953879118
1672829358592547600,10.688547607421874,0.0029997846577316523,0.007111172657459974,0.009181780740618706
1672829358602596900,10.698596923828125,0.0015664712991565466,0.012715795077383518,0.014682806096971035
1672829358612644600,10.70864453125,-0.003180613275617361,-0.01750575751066208,-0.011828696355223656
1672829358622692600,10.718692626953125,0.00002103897168126423,-0.0181084293872118,-0.007954861968755722
1672829358632740900,10.728740966796876,-0.002569950418546796,-0.02303953841328621,-0.010493920184671879
1672829358642789600,10.73878955078125,-0.005547098349779844,-0.020116187632083893,-0.011963718570768833
1672829358652837600,10.748837646484375,-0.005681321490556002,-0.025104554370045662,-0.008187356404960155
1672829358662885600,10.7588857421875,-0.004322044085711241,-0.023991085588932037,-0.013492905534803867
1672829358672934700,10.7689345703125,-0.0030298782512545586,-0.02522146701812744,-0.01684183068573475
1672829358682982700,10.778982666015626,0.0037465349305421114,-0.010490990243852139,-0.0059662796556949615
1672829358693030700,10.78903076171875,0.006363623309880495,-0.008643821813166142,0.0021606225054711103
1672829358703078700,10.79907861328125,0.003940679598599672,-0.013256949372589588,0.0020783308427780867
1672829358713127700,10.809127685546875,0.002435727044939995,-0.005939381662756205,0.006396912969648838
1672829358723175400,10.819175537109375,0.0017784589435905218,-0.011483284644782543,0.007199323270469904
1672829358733223700,10.8292236328125,0.004481034819036722,-0.01245081052184105,-0.002263686852529645
1672829358743271200,10.839271240234375,0.003739610780030489,-0.04796433076262474,-0.017897507175803185
1672829358753320200,10.8493203125,0.0019465044606477022,-0.03160106763243675,-0.008626244962215424
1672829358763368200,10.8593681640625,0.003221625927835703,-0.01582290604710579,-0.000940095866099
1672829358773416000,10.869416015625,-0.0010050770360976458,-0.008404936641454697,-0.02063816599547863
1672829358783465200,10.87946533203125,-0.0012085424968972802,-0.01678936555981636,-0.02436526119709015
1672829358793513000,10.889512939453125,0.0015331818722188473,-0.0027747475542128086,-0.03135925531387329
1672829358803561200,10.899561279296876,0.0046874298714101315,0.07554136216640472,-0.05409705638885498
1672829358813610000,10.90960986328125,-0.0013938985066488385,-0.011099789291620255,-0.02478284388780594
1672829358823658200,10.919658203125,0.004487160127609968,-0.014793327078223228,-0.03151877596974373
1672829358833706200,10.929706298828124,0.008863000199198723,-0.02093324437737465,-0.03304849565029144
1672829358843754000,10.93975390625,0.004914863966405392,-0.015839949250221252,-0.027757328003644943
1672829358853803300,10.94980322265625,0.01085957232862711,-0.011486213654279709,-0.021289842203259468
1672829358863851000,10.95985107421875,0.010876882821321487,-0.009582053869962692,-0.01846262998878956
1672829358873899300,10.969899169921876,0.02882259339094162,-0.009610549546778202,-0.020870661363005638
1672829358883948000,10.979947998046875,0.09923151135444641,0.0002735066518653184,-0.021408086642622948
1672829358893996300,10.989996337890625,0.1178363561630249,-0.001817873795516789,-0.023813454434275627
1672829358904044000,11.0000439453125,0.13134337961673737,0.0007664577569812536,-0.025231586769223213
1672829358914092000,11.010092041015625,0.16058622300624847,0.12686286866664886,-0.07643405348062515
1672829358924141000,11.02014111328125,0.15619678795337677,-0.0024431839119642973,-0.008726646192371845
1672829358934189000,11.03018896484375,0.14105938374996185,-0.01549267303198576,-0.011393269523978233
1672829358944237300,11.0402373046875,0.15174931287765503,-0.018800320103764534,-0.03365783020853996
1672829358954285000,11.05028515625,0.13116814196109772,-0.02033776231110096,-0.03829119727015495
1672829358964334300,11.060334228515625,0.07459594309329987,-0.02431279607117176,-0.03755855932831764
1672829358974382000,11.070382080078126,0.005008873529732227,-0.018809640780091286,-0.035284221172332764
1672829358984430000,11.08043017578125,0.002055161399766803,-0.013655091635882854,-0.029193570837378502
1672829358994479000,11.09047900390625,-0.0009723200928419828,-0.009043562225997448,-0.015349661000072956
1672829359004527000,11.100527099609375,0.0014857775531709194,-0.010920291766524315,-0.016918795183300972
1672829359014575400,11.110575439453125,-0.006613960489630699,-0.011516041122376919,-0.016820525750517845
1672829359024623000,11.120623046875,-0.006220611743628979,-0.015140336938202381,-0.022973226383328438
1672829359034672400,11.13067236328125,-0.0028272117488086224,-0.011418569833040237,-0.019454658031463623
1672829359044720000,11.14072021484375,-0.00021065604232717305,-0.015061773359775543,-0.016172578558325768
1672829359054768000,11.15076806640625,-0.004036020487546921,-0.017303090542554855,-0.016098808497190475
1672829359064817200,11.160817138671876,-0.002067678142338991,-0.01847301609814167,-0.03250707685947418
1672829359074865200,11.170865234375,0.00003968110104324296,-0.0151017215102911,-0.039935965090990067
1672829359084913200,11.1809130859375,0.000603738590143621,-0.018510567024350166,-0.04584445431828499
1672829359094961200,11.190961181640626,-0.0014705975772812963,-0.006342317909002304,-0.06272649765014648
1672829359105010000,11.201010009765625,-0.00017470336752012372,-0.010116017423570156,-0.07280789315700531
1672829359115058200,11.21105810546875,0.0024311996530741453,-0.010939733125269413,-0.08696312457323074
1672829359125106200,11.221106201171875,0.008164718747138977,-0.01148914359509945,-0.09332249313592911
1672829359135155200,11.2311552734375,0.020502878352999687,-0.007495200727134943,-0.09221168607473373
1672829359145203200,11.241203125,0.0548669770359993,-0.011946674436330795,-0.0892353355884552
1672829359155251000,11.2512509765625,0.1477138251066208,0.006610231939703226,-0.07637040317058563
1672829359165299200,11.26129931640625,0.22074569761753082,-0.0316665843129158,-0.08299288898706436
1672829359175348000,11.271347900390625,0.23934893310070038,-0.015122227370738983,-0.1149207279086113
1672829359185396200,11.281396240234375,0.19854052364826202,-0.012754145078361034,-0.16887423396110535
1672829359195444200,11.2914443359375,0.12424125522375107,-0.019646139815449715,-0.19132548570632935
1672829359205493200,11.3014931640625,0.059778377413749695,-0.01925492100417614,-0.19383764266967773
1672829359215541200,11.311541259765624,0.03626745939254761,-0.021981198340654373,-0.19639454782009125
1672829359225589000,11.321589111328125,0.028685707598924637,-0.022412365302443504,-0.20090220868587494
1672829359235637200,11.33163720703125,0.013932859525084496,-0.014917696826159954,-0.20364101231098175
1672829359245686000,11.34168603515625,0.005093828309327364,-0.007697867229580879,-0.18713606894016266
1672829359255734300,11.351734375,0.0002372876479057595,-0.01233283244073391,-0.1649676412343979
1672829359265782000,11.361781982421874,0.01056476030498743,-0.008187356404960155,-0.13287389278411865
1672829359275831300,11.371831298828125,0.005797967780381441,-0.006829143967479467,-0.10605639219284058
1672829359285879000,11.381879150390626,-0.007938084192574024,-0.007772169075906277,-0.09776969999074936
1672829359295927000,11.391927001953125,-0.008644887246191502,0.00040719733806326985,-0.1035250574350357
1672829359305975300,11.401975341796875,-0.0046149916015565395,0.005962018854916096,-0.14611193537712097
1672829359316024000,11.412024169921875,-0.018194183707237244,0.015076421201229095,-0.19663582742214203
1672829359326072300,11.422072265625,-0.013911021873354912,0.029098762199282646,-0.2942601144313812
1672829359336120000,11.4321201171875,0.00048416267964057624,0.023873640224337578,-0.398958295583725
1672829359346169300,11.44216943359375,0.015123026445508003,0.028371719643473625,-0.5018569827079773
1672829359356217000,11.452217041015626,0.022337796166539192,0.032038893550634384,-0.6040898561477661
1672829359366265000,11.46226513671875,0.024684041738510132,0.025535186752676964,-0.6924107074737549
1672829359376313000,11.47231298828125,0.042865972965955734,0.01720402017235756,-0.745979368686676
1672829359386362000,11.482362060546874,0.060053750872612,0.02238546684384346,-0.7898070216178894
1672829359396410000,11.49241015625,0.10075457394123077,-0.006698382552713156,-0.8259788751602173
1672829359406458000,11.5024580078125,0.13592320680618286,0.02075374871492386,-0.8883330821990967
1672829359416506000,11.512506103515625,0.1518758088350296,0.047135818749666214,-0.9478773474693298
1672829359426555100,11.52255517578125,0.14643524587154388,0.007920773699879646,-1.0110230445861816
1672829359436603100,11.53260302734375,0.15908978879451752,0.017733722925186157,-1.1041713953018188
1672829359446651100,11.542651123046875,0.2056887149810791,0.04048830270767212,-1.2110909223556519
1672829359456700200,11.5527001953125,0.22019228339195251,0.02160116657614708,-1.3029965162277222
1672829359466748200,11.562748046875,0.20843948423862457,0.019306587055325508,-1.4030728340148926
1672829359476796200,11.572796142578126,0.21291600167751312,0.013172261416912079,-1.4894229173660278
1672829359486844200,11.58284423828125,0.18513870239257812,0.02707049995660782,-1.5700794458389282
1672829359496893200,11.59289306640625,0.12939660251140594,0.038301847875118256,-1.6063740253448486
1672829359506941200,11.602941162109374,0.0783267617225647,0.0054847802966833115,-1.6133205890655518
1672829359516989200,11.6129892578125,0.041851840913295746,-0.03170839324593544,-1.591019868850708
1672829359527038200,11.6230380859375,0.02671603299677372,-0.03316114842891693,-1.570656180381775
1672829359537086200,11.633086181640625,0.023377228528261185,-0.07521698623895645,-1.5635863542556763
1672829359547134200,11.64313427734375,0.03051556460559368,-0.052328452467918396,-1.5519869327545166
1672829359557182000,11.653181884765624,0.06801553815603256,-0.021796109154820442,-1.563090443611145
1672829359567231200,11.663231201171875,0.06985870748758316,-0.015664447098970413,-1.5843784809112549
1672829359577279000,11.673279052734374,0.013217002153396606,0.0005933523061685264,-1.6123831272125244
1672829359587327200,11.6833271484375,-0.08298037201166153,0.03133714944124222,-1.6439698934555054
1672829359597375200,11.693375244140626,-0.2006755769252777,0.09170994907617569,-1.6656304597854614
1672829359607424300,11.70342431640625,-0.2991241216659546,0.10236818343400955,-1.6557362079620361
1672829359617472300,11.71347216796875,-0.36462509632110596,0.0927075669169426,-1.6134196519851685
1672829359627520000,11.72352001953125,-0.3705562353134155,0.09416378289461136,-1.556218147277832
1672829359637569300,11.7335693359375,-0.3416854441165924,0.09232806414365768,-1.5052967071533203
1672829359647617000,11.743616943359376,-0.28813138604164124,0.11314040422439575,-1.474397897720337
1672829359657665300,11.753665283203125,-0.2049291729927063,0.08196943253278732,-1.4440351724624634
1672829359667713300,11.76371337890625,-0.15037991106510162,0.06605225056409836,-1.442630410194397
1672829359677762000,11.773761962890624,-0.12412194907665253,0.055631570518016815,-1.4892971515655518
1672829359687810300,11.783810302734375,-0.13165336847305298,0.06792605668306351,-1.5234922170639038
1672829359697858000,11.793858154296874,-0.1570522040128708,0.04284892976284027,-1.5287431478500366
1672829359707907000,11.803906982421875,-0.20174457132816315,0.05819220095872879,-1.5189576148986816
1672829359717955000,11.813955078125,-0.24724841117858887,0.08637803047895432,-1.4772613048553467
1672829359728003000,11.824003173828125,-0.2989281117916107,0.13250663876533508,-1.4219602346420288
1672829359738051000,11.834051025390625,-0.34696513414382935,0.1228465586900711,-1.3660221099853516
1672829359748100400,11.844100341796874,-0.3812884986400604,0.11673087626695633,-1.3669164180755615
1672829359758148400,11.8541484375,-0.3372049331665039,0.09588737785816193,-1.3695646524429321
1672829359768196400,11.8641962890625,-0.21626652777194977,0.04065661504864693,-1.3551380634307861
1672829359778245400,11.874245361328125,-0.08898739516735077,-0.06413957476615906,-1.3823275566101074
1672829359788293400,11.88429345703125,-0.033127859234809875,-0.0931006520986557,-1.4522768259048462
1672829359798341400,11.89434130859375,-0.06130250543355942,0.01654515415430069,-1.5318316221237183
1672829359808389400,11.904389404296875,-0.13529416918754578,0.10201425105333328,-1.5567747354507446
1672829359818438400,11.9144384765625,-0.22053104639053345,0.2195906788110733,-1.5757734775543213
1672829359828486400,11.924486328125,-0.270215779542923,0.23207904398441315,-1.5198346376419067
1672829359838534400,11.934534423828126,-0.2973880171775818,0.2913415729999542,-1.47273850440979
1672829359848582100,11.94458203125,-0.29817816615104675,0.2786835730075836,-1.3921564817428589
1672829359858629400,11.95462939453125,-0.27724626660346985,0.2580230236053467,-1.3322463035583496
1672829359868677400,11.964677490234376,-0.28277283906936646,0.27424272894859314,-1.339976191520691
1672829359878725400,11.974725341796875,-0.31875747442245483,0.29531899094581604,-1.4145606756210327
1672829359888774400,11.9847744140625,-0.31060847640037537,0.3246462643146515,-1.4950828552246094
1672829359898822400,11.994822509765624,-0.2665669620037079,0.2364005595445633,-1.505845069885254
1672829359908870400,12.004870361328125,-0.19704276323318481,0.17466528713703156,-1.4914990663528442
1672829359918918400,12.01491845703125,-0.15169818699359894,0.1266130656003952,-1.558458924293518
1672829359928967200,12.02496728515625,-0.1319843977689743,0.13746997714042664,-1.5911388397216797
1672829359939015400,12.035015380859376,-0.16416656970977783,0.18489289283752441,-1.585644006729126
1672829359949063400,12.0450634765625,-0.17710553109645844,0.21894779801368713,-1.5890262126922607
1672829359959111400,12.055111328125,-0.19307491183280945,0.23780164122581482,-1.5490829944610596
1672829359969160200,12.06516015625,-0.19898420572280884,0.2447676658630371,-1.520142674446106
1672829359979208200,12.075208251953125,-0.19142988324165344,0.25451192259788513,-1.4841623306274414
1672829359989256400,12.08525634765625,-0.18622393906116486,0.24234925210475922,-1.4635531902313232
1672829359999305200,12.09530517578125,-0.17796866595745087,0.23291313648223877,-1.4573533535003662
1672829360009353500,12.105353515625,-0.1686771661043167,0.23093228042125702,-1.492929458618164
