time,seconds_elapsed,z,y,x
1672829347926852400,0.022852294921875,-317.43609619140625,-34.43345642089844,-50.098052978515625
1672829347936884500,0.032884521484375,-315.942138671875,-34.41314697265625,-52.2244873046875
1672829347946906600,0.04290673828125,-314.2825622558594,-34.45619201660156,-54.50201416015625
1672829347956932600,0.0529326171875,-312.62274169921875,-34.592742919921875,-56.39671325683594
1672829347966962700,0.062962646484375,-311.45037841796875,-35.1348876953125,-58.75608825683594
1672829347976981500,0.0729814453125,-310.639892578125,-35.26335144042969,-60.84910583496094
1672829347987008500,0.083008544921875,-309.31512451171875,-35.95408630371094,-62.69850158691406
1672829347997038600,0.09303857421875,-307.5872802734375,-36.705047607421875,-63.79835510253906
1672829348007060500,0.103060546875,-306.889892578125,-38.35694885253906,-65.15812683105469
1672829348017086500,0.11308642578125,-305.4682312011719,-39.71803283691406,-66.28663635253906
1672829348027112400,0.123112548828125,-304.96759033203125,-41.3138427734375,-66.90048217773438
1672829348037143600,0.1331435546875,-304.39215087890625,-42.662689208984375,-68.58848571777344
1672829348047163400,0.143163330078125,-303.5007019042969,-43.933685302734375,-69.80364990234375
1672829348057189400,0.153189453125,-301.9202880859375,-45.23112487792969,-70.59312438964844
1672829348067217700,0.1632177734375,-302.4288024902344,-46.63658142089844,-71.14628601074219
1672829348077244400,0.173244384765625,-301.98590087890625,-47.95562744140625,-71.48640441894531
1672829348087272400,0.1832724609375,-302.2156677246094,-48.82481384277344,-72.32095336914062
1672829348097298700,0.193298583984375,-301.6808166503906,-49.35643005371094,-72.60134887695312
1672829348107326500,0.203326416015625,-302.446044921875,-50.1590576171875,-72.98951721191406
1672829348117353500,0.213353515625,-302.46759033203125,-50.38874816894531,-73.57498168945312
1672829348127379500,0.22337939453125,-302.7821044921875,-50.570465087890625,-74.66505432128906
1672829348137405700,0.23340576171875,-303.20184326171875,-50.86808776855469,-75.13528442382812
1672829348147431700,0.243431640625,-304.357421875,-50.487701416015625,-76.02348327636719
1672829348157458400,0.25345849609375,-304.81060791015625,-50.260345458984375,-76.44207763671875
1672829348167485400,0.2634853515625,-306.16302490234375,-49.93304443359375,-77.52279663085938
1672829348177512400,0.273512451171875,-306.54022216796875,-49.16297912597656,-78.30934143066406
1672829348187539500,0.28353955078125,-307.481689453125,-49.19847106933594,-78.84721374511719
1672829348197571600,0.293571533203125,-308.8325500488281,-49.033599853515625,-79.69436645507812
1672829348207592400,0.303592529296875,-310.3538818359375,-49.02812194824219,-80.52177429199219
1672829348217621500,0.31362158203125,-310.861572265625,-48.92596435546875,-81.399169921875
1672829348227649500,0.3236494140625,-312.607177734375,-49.04522705078125,-82.29743957519531
1672829348237674500,0.333674560546875,-313.6593017578125,-49.45982360839844,-83.00898742675781
1672829348247699500,0.343699462890625,-315.3515319824219,-49.5704345703125,-83.38621520996094
1672829348257725400,0.353725341796875,-316.49285888671875,-49.89506530761719,-83.88232421875
1672829348267750400,0.36375048828125,-318.69219970703125,-50.807281494140625,-84.74095153808594
1672829348277778700,0.37377880859375,-319.18896484375,-51.39784240722656,-85.69291687011719
1672829348287803400,0.383803466796875,-320.39813232421875,-51.64741516113281,-86.83987426757812
1672829348297831400,0.39383154296875,-320.32891845703125,-51.77964782714844,-87.99166870117188
1672829348307858400,0.4038583984375,-320.44329833984375,-52.61399841308594,-89.48634338378906
1672829348317887500,0.413887451171875,-319.7096252441406,-52.2857666015625,-90.34567260742188
1672829348327915500,0.42391552734375,-319.9312744140625,-52.66151428222656,-91.17886352539062
1672829348337943600,0.433943603515625,-319.53143310546875,-52.398651123046875,-92.54753112792969
1672829348347969500,0.443969482421875,-319.7205810546875,-52.24383544921875,-93.03701782226562
1672829348357996500,0.45399658203125,-319.8778076171875,-52.19651794433594,-93.85720825195312
1672829348368026400,0.4640263671875,-319.4165344238281,-51.95977783203125,-94.89759826660156
1672829348378053400,0.474053466796875,-319.3663330078125,-51.95074462890625,-95.99755859375
1672829348388079400,0.484079345703125,-318.96234130859375,-51.67573547363281,-96.798828125
1672829348398107600,0.494107666015625,-318.6097412109375,-51.003204345703125,-98.11021423339844
1672829348408135400,0.504135498046875,-317.4042663574219,-50.65446472167969,-98.78099060058594
1672829348418161700,0.51416162109375,-316.43743896484375,-50.24859619140625,-100.04803466796875
1672829348428186400,0.524186279296875,-316.4287109375,-50.22615051269531,-101.41583251953125
1672829348438214700,0.534214599609375,-315.296142578125,-49.69354248046875,-102.58624267578125
1672829348448240600,0.54424072265625,-314.9817810058594,-49.58599853515625,-103.36376953125
1672829348458268400,0.554268310546875,-313.6554870605469,-49.217376708984375,-104.318359375
1672829348468294700,0.564294677734375,-313.45831298828125,-49.32679748535156,-105.32437133789062
1672829348478323500,0.574323486328125,-312.9634094238281,-49.49473571777344,-106.26377868652344
1672829348488351500,0.5843515625,-312.44427490234375,-49.52337646484375,-107.63845825195312
1672829348498378500,0.59437841796875,-311.99969482421875,-49.99629211425781,-109.14849853515625
1672829348508407600,0.604407470703125,-311.696533203125,-50.29093933105469,-110.00180053710938
1672829348518434600,0.6144345703125,-311.0684814453125,-50.42713928222656,-110.94691467285156
1672829348528461600,0.624461669921875,-310.7933654785156,-50.427642822265625,-111.42628479003906
1672829348538487600,0.634487548828125,-309.70465087890625,-50.293212890625,-111.87257385253906
1672829348548516600,0.6445166015625,-309.6048583984375,-50.87171936035156,-111.92433166503906
1672829348558543400,0.65454345703125,-308.80908203125,-51.13652038574219,-112.20834350585938
1672829348568570600,0.664570556640625,-308.7730712890625,-51.3092041015625,-113.23780822753906
1672829348578598400,0.674598388671875,-308.0939636230469,-51.7066650390625,-113.84956359863281
1672829348588625400,0.68462548828125,-308.14263916015625,-52.239532470703125,-114.59446716308594
1672829348598653400,0.6946533203125,-308.14642333984375,-52.60194396972656,-115.96209716796875
1672829348608680400,0.704680419921875,-308.3216552734375,-53.16197204589844,-117.60418701171875
1672829348618706400,0.71470654296875,-307.95361328125,-53.38932800292969,-119.47213745117188
1672829348628734500,0.724734375,-309.1083984375,-54.336883544921875,-121.44136047363281
1672829348638762500,0.734762451171875,-309.8944091796875,-54.52836608886719,-122.99957275390625
1672829348648788500,0.74478857421875,-310.4029541015625,-55.33885192871094,-124.23553466796875
1672829348658813400,0.7548134765625,-310.3470458984375,-55.64447021484375,-124.72599792480469
1672829348668838400,0.76483837890625,-309.9415283203125,-55.940032958984375,-125.31614685058594
1672829348678865400,0.774865478515625,-309.7268981933594,-56.031280517578125,-125.56411743164062
1672829348688891400,0.784891357421875,-309.011962890625,-56.45359802246094,-125.37705993652344
1672829348698918700,0.794918701171875,-308.21966552734375,-56.53474426269531,-125.80239868164062
1672829348708945400,0.8049453125,-308.18023681640625,-56.73600769042969,-126.256103515625
1672829348718973400,0.814973388671875,-307.1522216796875,-57.07441711425781,-127.91226196289062
1672829348729000400,0.82500048828125,-307.250732421875,-57.70526123046875,-129.31813049316406
1672829348739027700,0.83502783203125,-306.627197265625,-58.2269287109375,-130.8863525390625
1672829348749054700,0.8450546875,-306.36181640625,-58.95416259765625,-132.2425994873047
1672829348759080700,0.855080810546875,-306.3558044433594,-59.18377685546875,-132.7036590576172
1672829348769107700,0.865107666015625,-305.4863586425781,-59.45048522949219,-133.02293395996094
1672829348779135700,0.8751357421875,-304.986083984375,-59.617523193359375,-133.3117218017578
1672829348789162800,0.885162841796875,-304.6053466796875,-59.62580871582031,-133.4882049560547
1672829348799191800,0.89519189453125,-304.25213623046875,-59.987091064453125,-134.1652069091797
1672829348809222700,0.90522265625,-304.6455383300781,-60.78907775878906,-134.3483123779297
1672829348819244500,0.91524462890625,-304.1796875,-60.91790771484375,-135.49668884277344
1672829348829273600,0.925273681640625,-304.455322265625,-61.34947204589844,-136.46511840820312
1672829348839302000,0.935302001953125,-304.91656494140625,-61.52790832519531,-137.5861053466797
1672829348849329700,0.94532958984375,-304.152099609375,-62.131439208984375,-137.88877868652344
1672829348859356700,0.955356689453125,-302.5527648925781,-62.242340087890625,-137.8867645263672
1672829348869385700,0.9653857421875,-301.4510498046875,-62.33770751953125,-138.27268981933594
1672829348879411700,0.97541162109375,-299.4505615234375,-62.012908935546875,-139.2854766845703
1672829348889439700,0.985439697265625,-298.6258544921875,-62.39436340332031,-139.9866180419922
1672829348899469600,0.995469482421875,-297.905517578125,-62.36102294921875,-141.03887939453125
1672829348909497900,1.005497802734375,-297.5863037109375,-62.48548889160156,-141.70530700683594
1672829348919525600,1.015525634765625,-297.56939697265625,-62.59934997558594,-141.41807556152344
1672829348929552000,1.0255517578125,-298.29913330078125,-62.47837829589844,-140.56044006347656
1672829348939579600,1.03557958984375,-299.60455322265625,-62.056243896484375,-140.3891143798828
1672829348949606700,1.045606689453125,-300.3217468261719,-61.62738037109375,-139.15176391601562
1672829348959632600,1.055632568359375,-301.13031005859375,-61.0081787109375,-137.94187927246094
1672829348969660000,1.065659912109375,-302.61016845703125,-59.63768005371094,-135.43470764160156
1672829348979686000,1.075685791015625,-303.76513671875,-58.640625,-132.11553955078125
1672829348989712600,1.085712646484375,-305.6483154296875,-56.820037841796875,-127.18534851074219
1672829348999738600,1.095738525390625,-306.57049560546875,-54.813720703125,-121.4517822265625
1672829349009767000,1.105766845703125,-307.584228515625,-53.11134338378906,-115.66818237304688
1672829349019793000,1.11579296875,-308.06475830078125,-51.037811279296875,-109.79487609863281
1672829349029821700,1.12582177734375,-308.66705322265625,-49.71063232421875,-104.60871887207031
1672829349039848700,1.1358486328125,-308.7369079589844,-47.98291015625,-100.34169006347656
1672829349049876700,1.145876708984375,-307.78656005859375,-46.603912353515625,-96.284912109375
1672829349059904800,1.15590478515625,-307.5411376953125,-45.472686767578125,-92.5830078125
1672829349069933600,1.16593359375,-307.2065734863281,-44.12046813964844,-88.96221923828125
1672829349079962600,1.175962646484375,-306.3636474609375,-41.986297607421875,-85.7880859375
1672829349089989600,1.18598974609375,-306.02484130859375,-40.69313049316406,-82.15402221679688
1672829349100017700,1.196017578125,-305.30206298828125,-38.72755432128906,-78.29974365234375
1672829349110046700,1.206046630859375,-305.38153076171875,-37.39141845703125,-74.02406311035156
1672829349120073700,1.21607373046875,-305.934326171875,-35.95513916015625,-69.61370849609375
1672829349130101800,1.226101806640625,-307.52215576171875,-33.9390869140625,-65.04283142089844
1672829349140129800,1.2361298828125,-309.897705078125,-32.26853942871094,-60.447265625
1672829349150156800,1.24615673828125,-313.67156982421875,-31.628158569335938,-56.60218811035156
1672829349160183600,1.25618359375,-317.0472412109375,-30.164627075195312,-53.369232177734375
1672829349170212900,1.266212890625,-321.6329345703125,-29.32684326171875,-50.372772216796875
1672829349180242700,1.27624267578125,-325.9722900390625,-28.787246704101562,-48.142242431640625
1672829349190270700,1.286270751953125,-330.845703125,-29.111618041992188,-46.91648864746094
1672829349200298800,1.296298828125,-336.66473388671875,-29.176651000976562,-45.86090087890625
1672829349210325800,1.30632568359375,-340.556396484375,-30.240142822265625,-45.04612731933594
1672829349220352800,1.316352783203125,-345.2901611328125,-31.281097412109375,-44.10346984863281
1672829349230380800,1.326380859375,-349.2716064453125,-33.10102844238281,-44.018707275390625
1672829349240407800,1.33640771484375,-352.23492431640625,-34.53938293457031,-43.108917236328125
1672829349250435800,1.346435791015625,-353.6602783203125,-36.345611572265625,-43.07432556152344
1672829349260463600,1.356463623046875,-355.8757629394531,-36.81219482421875,-42.93170166015625
1672829349270489600,1.366489501953125,-356.47003173828125,-37.589935302734375,-43.62074279785156
1672829349280518000,1.376517822265625,-358.14544677734375,-38.08335876464844,-43.80126953125
1672829349290545700,1.386545654296875,-358.867431640625,-38.14860534667969,-45.02934265136719
1672829349300574000,1.396573974609375,-359.4892272949219,-37.76380920410156,-45.239410400390625
1672829349310599700,1.406599609375,-359.52996826171875,-37.879364013671875,-45.948211669921875
1672829349320626700,1.416626708984375,-360.4569091796875,-37.47731018066406,-46.42729187011719
1672829349330652700,1.426652587890625,-360.5290832519531,-37.371063232421875,-47.09983825683594
1672829349340678700,1.4366787109375,-360.3841552734375,-37.0958251953125,-47.09088134765625
1672829349350706700,1.446706787109375,-360.32293701171875,-37.39384460449219,-47.60887145996094
1672829349360733700,1.456733642578125,-360.7646484375,-36.931121826171875,-47.25724792480469
1672829349370760700,1.4667607421875,-360.73590087890625,-37.08929443359375,-47.80424499511719
1672829349380788700,1.476788818359375,-360.311767578125,-37.05937194824219,-47.665252685546875
1672829349390816800,1.486816650390625,-360.373291015625,-37.11622619628906,-48.07916259765625
1672829349400843500,1.496843505859375,-360.5899963378906,-36.89372253417969,-48.06089782714844
1672829349410871800,1.506871826171875,-360.3143310546875,-36.99961853027344,-47.84761047363281
1672829349420900900,1.51690087890625,-360.1245422363281,-36.719146728515625,-47.98066711425781
1672829349430926800,1.5269267578125,-360.0048828125,-37.1329345703125,-48.42791748046875
1672829349440954600,1.53695458984375,-360.1548767089844,-36.40806579589844,-48.231842041015625
1672829349450981600,1.546981689453125,-360.2340393066406,-36.9102783203125,-48.779296875
1672829349461009700,1.557009765625,-359.8501281738281,-36.725311279296875,-48.711883544921875
1672829349471037700,1.56703759765625,-360.09808349609375,-37.286224365234375,-48.61085510253906
1672829349481066800,1.577066650390625,-360.49310302734375,-36.78785705566406,-48.24021911621094
1672829349491093800,1.58709375,-360.67333984375,-37.43876647949219,-48.529296875
1672829349501119500,1.597119384765625,-360.45855712890625,-36.85260009765625,-48.18202209472656
1672829349511146800,1.607146728515625,-360.6590576171875,-36.864044189453125,-48.15458679199219
1672829349521172700,1.6171728515625,-359.92230224609375,-36.18505859375,-47.74711608886719
1672829349531200800,1.62720068359375,-358.9627685546875,-36.75297546386719,-47.98341369628906
1672829349541228800,1.637228759765625,-358.37664794921875,-36.14854431152344,-47.35882568359375
1672829349551256600,1.647256591796875,-357.8347473144531,-35.907989501953125,-47.34037780761719
1672829349561284900,1.657284912109375,-356.4708557128906,-35.07171630859375,-46.79164123535156
1672829349571312600,1.667312744140625,-354.8907775878906,-34.769927978515625,-46.23760986328125
1672829349581342700,1.6773427734375,-352.362060546875,-33.66581726074219,-45.353515625
1672829349591370800,1.687370849609375,-349.38531494140625,-32.879638671875,-45.29606628417969
1672829349601398800,1.697398681640625,-345.8805236816406,-31.20440673828125,-45.40788269042969
1672829349611425500,1.707425537109375,-341.48712158203125,-30.002365112304688,-46.44001770019531
1672829349621453800,1.717453857421875,-337.3606872558594,-28.19366455078125,-47.930908203125
1672829349631480600,1.72748046875,-333.07342529296875,-27.58636474609375,-50.88972473144531
1672829349641507600,1.737507568359375,-328.535888671875,-26.704360961914062,-53.49432373046875
1672829349651534800,1.747534912109375,-324.83477783203125,-26.747344970703125,-57.06510925292969
1672829349661562600,1.757562744140625,-320.70245361328125,-27.289352416992188,-60.277984619140625
1672829349671589600,1.767589599609375,-317.13458251953125,-28.537246704101562,-63.765472412109375
1672829349681617700,1.77761767578125,-313.65142822265625,-30.292739868164062,-66.298828125
1672829349691646700,1.787646728515625,-311.3412170410156,-32.104248046875,-68.34440612792969
1672829349701675800,1.79767578125,-308.0650634765625,-35.02276611328125,-70.14114379882812
1672829349711701500,1.807701416015625,-307.10284423828125,-36.96714782714844,-71.20265197753906
1672829349721730800,1.817730712890625,-304.2924499511719,-39.57426452636719,-72.62802124023438
1672829349731758800,1.8277587890625,-303.7356872558594,-41.542999267578125,-73.33175659179688
1672829349741787400,1.837787353515625,-302.86773681640625,-43.33512878417969,-74.15946960449219
1672829349751814400,1.847814453125,-303.11126708984375,-44.56535339355469,-74.52729797363281
1672829349761842400,1.857842529296875,-303.05157470703125,-45.16230773925781,-75.83552551269531
1672829349771870500,1.867870361328125,-303.2796630859375,-45.85197448730469,-75.97114562988281
1672829349781897500,1.8778974609375,-303.66571044921875,-46.147552490234375,-76.94923400878906
1672829349791923500,1.88792333984375,-304.50250244140625,-46.321014404296875,-77.23344421386719
1672829349801950500,1.897950439453125,-304.93524169921875,-45.96006774902344,-78.46804809570312
1672829349811977500,1.9079775390625,-306.383544921875,-45.61009216308594,-79.13221740722656
1672829349822005500,1.918005615234375,-306.74774169921875,-45.34637451171875,-80.25910949707031
1672829349832033300,1.928033203125,-308.0186767578125,-44.95469665527344,-80.74006652832031
1672829349842060500,1.938060546875,-309.03094482421875,-45.59721374511719,-81.90283203125
1672829349852087600,1.948087646484375,-310.41632080078125,-45.22383117675781,-82.31434631347656
1672829349862115300,1.958115234375,-310.846923828125,-45.60771179199219,-83.45252990722656
1672829349872141300,1.968141357421875,-311.5638427734375,-45.968658447265625,-83.86196899414062
1672829349882169600,1.978169677734375,-312.22235107421875,-46.26054382324219,-84.85374450683594
1672829349892196400,1.9881962890625,-312.9130859375,-46.269439697265625,-84.73471069335938
1672829349902223600,1.9982236328125,-313.5654296875,-46.50987243652344,-85.57894897460938
1672829349912252400,2.00825244140625,-313.8493347167969,-47.268341064453125,-85.95123291015625
1672829349922281500,2.018281494140625,-314.0689392089844,-47.30583190917969,-86.65977478027344
1672829349932307500,2.028307373046875,-315.0243225097656,-47.373260498046875,-86.918701171875
1672829349942334500,2.03833447265625,-314.8733825683594,-47.91886901855469,-88.14707946777344
1672829349952361500,2.048361572265625,-315.5137634277344,-47.88154602050781,-88.69549560546875
1672829349962389500,2.058389404296875,-315.5888671875,-48.82441711425781,-89.77603149414062
1672829349972417500,2.06841748046875,-316.4180908203125,-48.65545654296875,-89.98765563964844
1672829349982445600,2.078445556640625,-315.8853454589844,-48.96900939941406,-90.82464599609375
1672829349992472300,2.088472412109375,-315.86895751953125,-49.17512512207031,-91.37940979003906
1672829350002499600,2.09849951171875,-316.125,-49.037628173828125,-92.25680541992188
1672829350012525600,2.108525634765625,-316.6306457519531,-49.251800537109375,-92.58572387695312
1672829350022551600,2.118551513671875,-316.989990234375,-49.938812255859375,-93.87489318847656
1672829350032578600,2.12857861328125,-317.3111267089844,-49.69781494140625,-94.92752075195312
1672829350042609400,2.138609375,-317.4955749511719,-49.94853210449219,-96.05552673339844
1672829350052635400,2.148635498046875,-317.57489013671875,-50.01123046875,-97.98370361328125
1672829350062662400,2.158662353515625,-317.0953063964844,-49.92341613769531,-99.54461669921875
1672829350072689400,2.168689453125,-317.2122802734375,-49.83036804199219,-100.66151428222656
1672829350082717400,2.178717529296875,-316.7174987792969,-50.14259338378906,-102.82925415039062
1672829350092743400,2.188743408203125,-317.49041748046875,-50.42665100097656,-103.57109069824219
1672829350102770700,2.198770751953125,-316.6431884765625,-50.95097351074219,-104.98895263671875
1672829350112797400,2.20879736328125,-316.486572265625,-50.63496398925781,-105.42958068847656
1672829350122825500,2.218825439453125,-315.1361083984375,-51.45556640625,-106.27545166015625
1672829350132853500,2.228853515625,-315.3050537109375,-51.17683410644531,-106.1220703125
1672829350142882600,2.238882568359375,-314.2021484375,-51.8223876953125,-106.90467834472656
1672829350152909600,2.24890966796875,-314.1697998046875,-51.63923645019531,-107.01571655273438
1672829350162937300,2.258937255859375,-313.0001220703125,-52.114013671875,-107.26747131347656
1672829350172966400,2.26896630859375,-312.96051025390625,-52.11865234375,-107.32032775878906
1672829350182993400,2.278993408203125,-312.5235595703125,-52.211517333984375,-108.28739929199219
1672829350193021400,2.289021484375,-313.08917236328125,-53.05499267578125,-108.94578552246094
1672829350203048400,2.29904833984375,-313.2667541503906,-53.40620422363281,-110.55398559570312
1672829350213077500,2.309077392578125,-312.56292724609375,-53.49330139160156,-110.66409301757812
1672829350223104500,2.3191044921875,-312.4928894042969,-53.631134033203125,-111.635009765625
1672829350233133600,2.329133544921875,-311.85821533203125,-54.10813903808594,-111.73060607910156
1672829350243160600,2.33916064453125,-311.7110595703125,-54.08123779296875,-113.06369018554688
1672829350253186600,2.3491865234375,-311.7637939453125,-54.54411315917969,-114.00437927246094
1672829350263212500,2.359212646484375,-311.59954833984375,-55.04925537109375,-115.25494384765625
1672829350273240600,2.369240478515625,-311.9978942871094,-55.43525695800781,-115.77462768554688
1672829350283267600,2.379267578125,-311.85003662109375,-56.12290954589844,-117.12162780761719
1672829350293293600,2.38929345703125,-311.8868408203125,-56.50334167480469,-117.7808837890625
1672829350303319600,2.399319580078125,-310.96685791015625,-57.52455139160156,-118.83514404296875
1672829350313345500,2.409345458984375,-310.8172607421875,-57.3289794921875,-118.92347717285156
1672829350323371500,2.41937158203125,-309.937744140625,-58.46501159667969,-119.77972412109375
1672829350333397500,2.4293974609375,-309.8717041015625,-58.72479248046875,-120.21942138671875
1672829350343423500,2.439423583984375,-308.6391296386719,-59.26188659667969,-121.04994201660156
1672829350353450500,2.449450439453125,-307.9902038574219,-59.46842956542969,-121.51747131347656
1672829350363478500,2.459478515625,-306.755859375,-59.7462158203125,-123.25433349609375
1672829350373506600,2.469506591796875,-306.2567443847656,-60.14393615722656,-123.62458801269531
1672829350383534300,2.479534423828125,-304.9854736328125,-60.982330322265625,-125.07763671875
1672829350393561300,2.489561279296875,-304.1856994628906,-61.26582336425781,-126.20077514648438
1672829350403589400,2.49958935546875,-303.53143310546875,-61.362701416015625,-127.60708618164062
1672829350413617400,2.509617431640625,-303.3887939453125,-61.577545166015625,-128.34454345703125
1672829350423646500,2.519646484375,-302.52374267578125,-62.15814208984375,-129.68443298339844
1672829350433672400,2.52967236328125,-301.90771484375,-62.10514831542969,-130.70704650878906
1672829350443701500,2.539701416015625,-300.6501770019531,-62.921173095703125,-132.31106567382812
1672829350453730600,2.54973046875,-299.5791015625,-62.765045166015625,-133.5303955078125
1672829350463755300,2.55975537109375,-299.7919921875,-63.101318359375,-134.63087463378906
1672829350473782500,2.569782470703125,-298.9599609375,-63.38548278808594,-135.89060974121094
1672829350483809500,2.5798095703125,-298.64886474609375,-64.13850402832031,-137.4916229248047
1672829350493835500,2.58983544921875,-298.2423400878906,-64.26821899414062,-138.5919647216797
1672829350503862300,2.5998623046875,-297.90478515625,-64.61430358886719,-139.80389404296875
1672829350513889500,2.6098896484375,-297.93035888671875,-64.5474853515625,-141.03704833984375
1672829350523917300,2.619917236328125,-297.2182312011719,-65.12704467773438,-142.47377014160156
1672829350533943300,2.629943359375,-296.77459716796875,-65.07052612304688,-143.4377899169922
1672829350543970600,2.639970458984375,-295.978271484375,-65.82322692871094,-145.2899932861328
1672829350553997600,2.64999755859375,-295.92840576171875,-66.2371826171875,-147.00440979003906
1672829350564023600,2.6600234375,-294.90740966796875,-66.79544067382812,-149.152099609375
1672829350574051300,2.67005126953125,-293.7296142578125,-67.54634094238281,-150.70700073242188
1672829350584077300,2.680077392578125,-291.5040588378906,-67.89994812011719,-151.7171630859375
1672829350594104600,2.6901044921875,-289.5614013671875,-68.06498718261719,-152.49368286132812
1672829350604133400,2.70013330078125,-286.455322265625,-68.47329711914062,-153.19882202148438
1672829350614160600,2.71016064453125,-283.14813232421875,-67.92723083496094,-153.1357879638672
1672829350624187400,2.7201875,-279.87774658203125,-68.25173950195312,-153.38238525390625
1672829350634215700,2.730215576171875,-277.21624755859375,-67.72618103027344,-153.0575408935547
1672829350644242400,2.740242431640625,-273.88763427734375,-67.47578430175781,-153.13758850097656
1672829350654269400,2.75026953125,-270.453125,-66.78329467773438,-152.91871643066406
1672829350664297500,2.76029736328125,-265.961669921875,-66.38188171386719,-152.03013610839844
1672829350674327300,2.770327392578125,-263.40447998046875,-65.97669982910156,-150.77542114257812
1672829350684353500,2.780353515625,-259.86962890625,-65.11299133300781,-149.11656188964844
1672829350694382300,2.79038232421875,-257.8815612792969,-64.17831420898438,-147.24002075195312
1672829350704409300,2.800409423828125,-257.7973327636719,-64.02769470214844,-146.53111267089844
1672829350714435600,2.810435546875,-256.8433532714844,-63.62898254394531,-146.6591033935547
1672829350724460300,2.820460205078125,-257.2082214355469,-64.42645263671875,-146.83937072753906
1672829350734487600,2.830487548828125,-257.33282470703125,-63.8587646484375,-146.563720703125
1672829350744513800,2.840513671875,-256.813232421875,-63.880615234375,-146.53884887695312
1672829350754540800,2.850540771484375,-256.91241455078125,-63.73683166503906,-146.4179229736328
1672829350764566800,2.86056689453125,-256.71942138671875,-64.04624938964844,-146.56040954589844
1672829350774594800,2.8705947265625,-257.3580322265625,-64.03657531738281,-146.70143127441406
1672829350784622800,2.880622802734375,-257.34356689453125,-63.89117431640625,-146.5625
1672829350794651000,2.89065087890625,-256.90869140625,-63.95820617675781,-146.7221221923828
1672829350804678000,2.900677978515625,-256.8435974121094,-64.13906860351562,-146.63980102539062
1672829350814705000,2.910704833984375,-256.64898681640625,-63.77580261230469,-147.06333923339844
1672829350824732000,2.92073193359375,-257.08056640625,-64.37001037597656,-146.52761840820312
1672829350834758700,2.930758544921875,-256.4581298828125,-63.801177978515625,-146.77066040039062
1672829350844786000,2.940785888671875,-257.17034912109375,-64.29032897949219,-146.7660369873047
1672829350854812000,2.95081201171875,-256.8813781738281,-64.25253295898438,-146.604736328125
1672829350864836900,2.9608369140625,-256.7569885253906,-64.45266723632812,-147.0395050048828
1672829350874862800,2.97086279296875,-257.33648681640625,-64.74897766113281,-146.63211059570312
1672829350884887800,2.9808876953125,-257.3902893066406,-64.56484985351562,-146.9791259765625
1672829350894913800,2.990913818359375,-257.0430908203125,-63.96809387207031,-146.97166442871094
1672829350904939000,3.00093896484375,-257.017333984375,-64.25389099121094,-146.60386657714844
1672829350914965800,3.0109658203125,-256.5748291015625,-64.42282104492188,-146.63436889648438
1672829350924992800,3.02099267578125,-257.5668029785156,-64.41783142089844,-146.49130249023438
1672829350935018800,3.031018798828125,-257.2163391113281,-64.44694519042969,-146.85572814941406
1672829350945044700,3.041044677734375,-257.1005554199219,-64.24320983886719,-146.8324737548828
1672829350955069700,3.051069580078125,-257.5541687011719,-64.01206970214844,-146.69667053222656
1672829350965097000,3.061096923828125,-257.3981018066406,-64.31982421875,-146.8411102294922
1672829350975124000,3.0711240234375,-257.06298828125,-64.25801086425781,-146.8256072998047
1672829350985150000,3.08114990234375,-256.68695068359375,-64.41790771484375,-147.1918487548828
1672829350995176000,3.091176025390625,-256.8585205078125,-64.06922912597656,-146.9638671875
1672829351005200000,3.101199951171875,-256.6231994628906,-64.4786376953125,-147.36151123046875
1672829351015230000,3.11122998046875,-256.26220703125,-64.09237670898438,-147.0486602783203
1672829351025250800,3.121250732421875,-256.9006652832031,-64.63880920410156,-146.93057250976562
1672829351035276000,3.131276123046875,-256.4945068359375,-64.19180297851562,-147.46453857421875
1672829351045304800,3.141304931640625,-256.9018249511719,-64.48588562011719,-146.97972106933594
1672829351055331800,3.151331787109375,-255.871337890625,-64.15965270996094,-147.00051879882812
1672829351065357800,3.16135791015625,-256.885009765625,-64.585205078125,-147.09286499023438
1672829351075385900,3.1713857421875,-256.09979248046875,-64.1845703125,-146.84426879882812
1672829351085410800,3.181410888671875,-256.85760498046875,-64.38430786132812,-147.21250915527344
1672829351095437800,3.191437744140625,-256.28131103515625,-63.78746032714844,-146.95266723632812
1672829351105465900,3.2014658203125,-256.4422607421875,-64.30104064941406,-147.10665893554688
1672829351115494000,3.211493896484375,-256.51544189453125,-63.97322082519531,-146.90447998046875
1672829351125520000,3.221519775390625,-257.3105773925781,-64.32693481445312,-146.85299682617188
1672829351135547000,3.231546875,-256.0190734863281,-63.91392517089844,-146.8624725341797
1672829351145574000,3.241573974609375,-256.10272216796875,-64.21061706542969,-146.78565979003906
1672829351155598800,3.251598876953125,-256.9615478515625,-63.75579833984375,-146.64520263671875
1672829351165625900,3.2616259765625,-257.0965576171875,-64.0390625,-146.97181701660156
1672829351175652900,3.27165283203125,-256.71533203125,-63.75352478027344,-146.92132568359375
1672829351185680000,3.281679931640625,-256.60931396484375,-63.98081970214844,-146.5463409423828
1672829351195708000,3.2917080078125,-256.29052734375,-63.55436706542969,-146.83602905273438
1672829351205736000,3.30173583984375,-256.083740234375,-63.87705993652344,-146.95021057128906
1672829351215763000,3.311762939453125,-256.26470947265625,-63.47889709472656,-146.70704650878906
1672829351225790700,3.321790771484375,-256.5533447265625,-64.17352294921875,-147.2277374267578
1672829351235820800,3.33182080078125,-256.4874267578125,-63.265472412109375,-146.96473693847656
1672829351245841000,3.3418408203125,-256.71990966796875,-64.06132507324219,-147.33802795410156
1672829351255867000,3.351866943359375,-256.6881103515625,-63.76434326171875,-146.90460205078125
1672829351265894000,3.361893798828125,-256.89044189453125,-64.06925964355469,-146.87222290039062
1672829351275918800,3.3719189453125,-256.4037170410156,-63.91300964355469,-146.7350311279297
1672829351285944800,3.38194482421875,-256.6468811035156,-63.97923278808594,-147.0251922607422
1672829351295970800,3.391970703125,-256.40447998046875,-63.835418701171875,-147.02162170410156
1672829351305996800,3.401996826171875,-256.776123046875,-64.13421630859375,-146.9508514404297
1672829351316022000,3.41202197265625,-256.53692626953125,-63.84104919433594,-146.6634979248047
1672829351326049800,3.4220498046875,-256.76129150390625,-64.44111633300781,-146.99977111816406
1672829351336076800,3.432076904296875,-256.961669921875,-64.025634765625,-146.64288330078125
1672829351346107000,3.44210693359375,-256.75738525390625,-63.98663330078125,-146.95091247558594
1672829351356135000,3.452135009765625,-256.9024658203125,-63.83961486816406,-146.9007110595703
1672829351366163700,3.462163818359375,-256.6142272949219,-64.05012512207031,-147.0375518798828
1672829351376191700,3.472191650390625,-256.9778747558594,-63.77525329589844,-147.06863403320312
1672829351386221000,3.482220947265625,-256.7216491699219,-63.927947998046875,-146.93267822265625
1672829351396249900,3.492249755859375,-256.74810791015625,-63.61273193359375,-146.77569580078125
1672829351406276900,3.50227685546875,-256.90679931640625,-64.37451171875,-147.22508239746094
1672829351416305000,3.512304931640625,-256.58831787109375,-63.91546630859375,-146.70822143554688
1672829351426331600,3.52233154296875,-257.03326416015625,-64.47325134277344,-146.82833862304688
1672829351436360000,3.53235986328125,-257.2503662109375,-63.67457580566406,-146.95062255859375
1672829351446389000,3.542388916015625,-257.4012451171875,-63.86146545410156,-147.05055236816406
1672829351456416000,3.552416015625,-256.5769958496094,-63.5181884765625,-146.93650817871094
1672829351466442800,3.56244287109375,-257.0340881347656,-64.06076049804688,-146.71151733398438
1672829351476471800,3.572471923828125,-256.54852294921875,-63.92509460449219,-146.9820556640625
1672829351486500900,3.5825009765625,-257.09954833984375,-64.34956359863281,-147.1968536376953
1672829351496529000,3.59252880859375,-256.5851135253906,-63.82658386230469,-147.0445098876953
1672829351506558000,3.602557861328125,-257.0799865722656,-64.2196044921875,-146.62448120117188
1672829351516586800,3.612586669921875,-256.33905029296875,-63.912445068359375,-147.14553833007812
1672829351526614000,3.622614013671875,-256.7509765625,-64.19166564941406,-146.7189483642578
1672829351536641800,3.632641845703125,-256.15960693359375,-63.94908142089844,-146.96615600585938
1672829351546667800,3.642667724609375,-256.74749755859375,-63.94342041015625,-147.07818603515625
1672829351556694800,3.65269482421875,-256.7945251464844,-64.15290832519531,-146.87185668945312
1672829351566721800,3.6627216796875,-256.9126281738281,-63.913818359375,-147.10635375976562
1672829351576749800,3.672749755859375,-256.8362731933594,-64.16204833984375,-146.99649047851562
1672829351586777900,3.68277783203125,-257.10638427734375,-64.25331115722656,-146.9340057373047
1672829351596809000,3.69280908203125,-256.6047668457031,-63.768646240234375,-146.96035766601562
1672829351606836700,3.702836669921875,-257.0825500488281,-63.82563781738281,-146.847900390625
1672829351616866800,3.71286669921875,-256.780029296875,-63.265625,-146.64010620117188
1672829351626893800,3.722893798828125,-256.9770202636719,-63.998260498046875,-146.9459991455078
1672829351636921900,3.732921875,-255.9640655517578,-64.12532043457031,-146.9979705810547
1672829351646952000,3.742951904296875,-256.87603759765625,-64.21798706054688,-147.08029174804688
1672829351656979700,3.752979736328125,-256.531494140625,-63.94752502441406,-147.1277618408203
1672829351667008800,3.7630087890625,-255.92100524902344,-64.35343933105469,-146.97702026367188
1672829351677038000,3.7730380859375,-255.9488525390625,-63.850341796875,-146.8840789794922
1672829351687064800,3.78306494140625,-256.283935546875,-64.19450378417969,-146.846923828125
1672829351697092900,3.7930927734375,-256.39227294921875,-63.51347351074219,-147.00955200195312
1672829351707122000,3.803121826171875,-256.4116516113281,-64.17475891113281,-147.0980682373047
1672829351717148700,3.813148681640625,-255.61627197265625,-63.97377014160156,-147.2538299560547
1672829351727176000,3.823176025390625,-256.89947509765625,-64.19952392578125,-146.8304443359375
1672829351737204500,3.83320458984375,-256.174072265625,-64.04328918457031,-146.81727600097656
1672829351747232500,3.843232421875,-256.49969482421875,-63.93601989746094,-147.00975036621094
1672829351757261600,3.853261474609375,-256.55914306640625,-64.12893676757812,-147.32850646972656
1672829351767291600,3.863291748046875,-256.57330322265625,-64.13058471679688,-147.03758239746094
1672829351777318400,3.873318359375,-255.97836303710938,-63.75042724609375,-146.96514892578125
1672829351787346700,3.8833466796875,-256.60626220703125,-63.92054748535156,-146.7665252685547
1672829351797375500,3.89337548828125,-256.4100341796875,-64.15524291992188,-146.97784423828125
1672829351807404500,3.903404541015625,-256.5895690917969,-64.58888244628906,-146.83914184570312
1672829351817433600,3.91343359375,-256.16363525390625,-64.21578979492188,-146.86709594726562
1672829351827459600,3.92345947265625,-255.9950408935547,-63.89598083496094,-147.08456420898438
1672829351837487400,3.9334873046875,-255.9121856689453,-64.08868408203125,-147.01429748535156
1672829351847516400,3.943516357421875,-256.883544921875,-63.8798828125,-147.1908416748047
1672829351857543400,3.95354345703125,-256.05352783203125,-64.12484741210938,-146.96180725097656
1672829351867571700,3.96357177734375,-256.146240234375,-64.44590759277344,-146.6927947998047
1672829351877602600,3.9736025390625,-255.7525177001953,-63.73614501953125,-147.081298828125
1672829351887629600,3.983629638671875,-255.94912719726562,-64.11209106445312,-147.00233459472656
1672829351897659600,3.99365966796875,-256.0711669921875,-63.66069030761719,-146.97731018066406
1672829351907685600,4.003685546875,-256.512451171875,-64.15092468261719,-146.96531677246094
1672829351917712400,4.01371240234375,-255.6317901611328,-64.01567077636719,-147.01089477539062
1672829351927739600,4.02373974609375,-255.9039764404297,-64.13182067871094,-147.34640502929688
1672829351937767400,4.033767333984375,-255.7614288330078,-63.95307922363281,-147.02297973632812
1672829351947795700,4.043795654296875,-255.62367248535156,-63.92413330078125,-147.35821533203125
1672829351957824500,4.053824462890625,-256.05242919921875,-64.09170532226562,-147.06271362304688
1672829351967853600,4.063853515625,-255.9798126220703,-64.53269958496094,-146.94744873046875
1672829351977881300,4.07388134765625,-255.47410583496094,-64.234619140625,-147.37030029296875
1672829351987909600,4.08390966796875,-256.387939453125,-64.02560424804688,-147.09498596191406
1672829351997935600,4.093935546875,-255.9405059814453,-63.7388916015625,-147.32640075683594
1672829352007963400,4.10396337890625,-256.4605407714844,-64.60823059082031,-147.0030975341797
1672829352017989600,4.11398974609375,-255.89291381835938,-63.78460693359375,-147.1041717529297
1672829352028016600,4.1240166015625,-256.0654296875,-64.0150146484375,-147.2431182861328
1672829352038043400,4.13404345703125,-255.9429168701172,-64.12313842773438,-147.01344299316406
1672829352048070400,4.1440703125,-255.6251220703125,-63.81315612792969,-146.96658325195312
1672829352058100500,4.1541005859375,-255.63534545898438,-63.802520751953125,-147.30291748046875
1672829352068128500,4.16412841796875,-256.0067443847656,-63.95738220214844,-147.04640197753906
1672829352078155500,4.174155517578125,-256.20269775390625,-63.860748291015625,-147.000244140625
1672829352088183300,4.184183349609375,-257.07659912109375,-63.93186950683594,-146.83334350585938
1672829352098211600,4.194211669921875,-255.6659698486328,-63.55903625488281,-147.2654266357422
1672829352108239400,4.2042392578125,-256.8427734375,-64.17494201660156,-146.7214813232422
1672829352118267600,4.214267578125,-256.0408935546875,-64.15699768066406,-147.2382354736328
1672829352128298500,4.224298583984375,-256.2411193847656,-64.189697265625,-147.41571044921875
1672829352138326500,4.234326416015625,-256.54962158203125,-63.913726806640625,-146.97622680664062
1672829352148355600,4.24435546875,-256.8685302734375,-63.95823669433594,-147.4930419921875
1672829352158384600,4.254384521484375,-255.90478515625,-64.25108337402344,-147.3089141845703
1672829352168412400,4.264412353515625,-256.37139892578125,-63.6265869140625,-147.3720245361328
1672829352178440400,4.2744404296875,-256.2012634277344,-63.662017822265625,-147.32461547851562
1672829352188468500,4.284468505859375,-256.62054443359375,-63.95738220214844,-147.36856079101562
1672829352198496500,4.29449658203125,-256.465576171875,-63.82176208496094,-147.34268188476562
1672829352208526600,4.304526611328125,-256.8707275390625,-64.18180847167969,-147.3296661376953
1672829352218555400,4.314555419921875,-256.2145690917969,-63.90570068359375,-147.4214630126953
1672829352228583700,4.324583740234375,-256.1968994140625,-63.91960144042969,-147.31251525878906
1672829352238611500,4.334611572265625,-256.65283203125,-63.92268371582031,-147.3167266845703
1672829352248638700,4.344638671875,-256.124755859375,-64.01806640625,-147.09396362304688
1672829352258666500,4.35466650390625,-256.3394775390625,-64.077392578125,-147.22552490234375
1672829352268694500,4.364694580078125,-256.2274169921875,-64.10600280761719,-147.48948669433594
1672829352278722600,4.37472265625,-256.15032958984375,-64.2548828125,-147.49380493164062
1672829352288750300,4.384750244140625,-256.63043212890625,-64.32093811035156,-147.42520141601562
1672829352298779400,4.394779296875,-256.26470947265625,-64.42709350585938,-147.31219482421875
1672829352308807700,4.4048076171875,-256.619384765625,-64.36590576171875,-146.95664978027344
1672829352318835500,4.41483544921875,-256.23858642578125,-64.22627258300781,-147.20130920410156
1672829352328864500,4.424864501953125,-256.45599365234375,-64.10993957519531,-146.97666931152344
1672829352338893300,4.434893310546875,-256.0753479003906,-63.820037841796875,-146.9768829345703
1672829352348921600,4.444921630859375,-256.5835876464844,-64.13685607910156,-146.81947326660156
1672829352358949400,4.454949462890625,-255.93011474609375,-64.00349426269531,-147.07916259765625
1672829352368979500,4.4649794921875,-255.9481658935547,-64.05262756347656,-146.97901916503906
1672829352379006700,4.4750068359375,-255.69346618652344,-63.72331237792969,-147.1416473388672
1672829352389035500,4.485035400390625,-256.6686706542969,-63.95185852050781,-147.06336975097656
1672829352399064600,4.495064697265625,-256.3835144042969,-64.0218505859375,-147.33416748046875
1672829352409093600,4.50509375,-256.2972717285156,-63.92713928222656,-146.9444122314453
1672829352419122400,4.515122314453125,-256.3021545410156,-63.6898193359375,-146.990234375
1672829352429151500,4.5251513671875,-256.4576416015625,-63.47267150878906,-146.6935577392578
1672829352439181600,4.535181640625,-256.07391357421875,-63.68870544433594,-147.1496124267578
1672829352449210400,4.54521044921875,-255.92364501953125,-64.078369140625,-147.21514892578125
1672829352459238700,4.55523876953125,-256.0545959472656,-64.03382873535156,-146.8372039794922
1672829352469269500,4.56526953125,-256.20465087890625,-63.908660888671875,-146.67628479003906
1672829352479298600,4.575298583984375,-255.93716430664062,-63.62347412109375,-147.04867553710938
1672829352489326600,4.58532666015625,-256.3894958496094,-63.837310791015625,-147.0500030517578
1672829352499354600,4.595354736328125,-256.1477966308594,-63.51612854003906,-146.62741088867188
1672829352509382400,4.60538232421875,-256.9012145996094,-63.60003662109375,-147.2190399169922
1672829352519412500,4.61541259765625,-256.2561340332031,-63.916046142578125,-146.95025634765625
1672829352529442600,4.625442626953125,-256.13653564453125,-63.73710632324219,-147.0680694580078
1672829352539471600,4.6354716796875,-256.4561462402344,-63.76348876953125,-147.32997131347656
1672829352549499400,4.64549951171875,-257.16436767578125,-63.83784484863281,-147.10894775390625
1672829352559527400,4.65552734375,-256.277099609375,-63.70396423339844,-147.30186462402344
1672829352569557500,4.6655576171875,-256.1727294921875,-63.69854736328125,-147.35594177246094
1672829352579585500,4.67558544921875,-256.3893127441406,-63.22357177734375,-147.23863220214844
1672829352589614600,4.685614501953125,-256.70172119140625,-64.13575744628906,-147.0863800048828
1672829352599642600,4.695642578125,-256.08154296875,-63.92469787597656,-147.26649475097656
1672829352609671700,4.705671630859375,-256.58447265625,-63.967803955078125,-147.3007354736328
1672829352619699500,4.715699462890625,-256.7422180175781,-63.98445129394531,-147.00341796875
1672829352629727500,4.7257275390625,-256.409912109375,-64.03788757324219,-147.0498809814453
1672829352639756500,4.735756591796875,-256.5089111328125,-64.02796936035156,-146.84300231933594
1672829352649784600,4.74578466796875,-256.388427734375,-63.653167724609375,-146.64041137695312
1672829352659812400,4.755812255859375,-256.283203125,-63.929473876953125,-146.9703826904297
1672829352669840600,4.765840576171875,-257.156494140625,-64.05381774902344,-147.08670043945312
1672829352679868400,4.775868408203125,-256.54803466796875,-64.00735473632812,-147.4148712158203
1672829352689895700,4.785895751953125,-256.8842468261719,-64.01002502441406,-147.04681396484375
1672829352699924500,4.795924560546875,-255.9486541748047,-63.98780822753906,-147.4639434814453
1672829352709951500,4.805951416015625,-256.5704345703125,-64.08354187011719,-146.9801483154297
1672829352719980500,4.81598046875,-256.08831787109375,-64.19834899902344,-147.30162048339844
1672829352730008600,4.826008544921875,-256.74444580078125,-63.63432312011719,-146.9814453125
1672829352740034800,4.836034912109375,-255.77645874023438,-64.19027709960938,-147.3495635986328
1672829352750062800,4.846062744140625,-256.07000732421875,-63.66853332519531,-147.0868377685547
1672829352760089900,4.85608984375,-255.68971252441406,-63.69450378417969,-146.94178771972656
1672829352770117600,4.86611767578125,-256.43316650390625,-64.15763854980469,-146.9576416015625
1672829352780146000,4.87614599609375,-255.9327850341797,-64.18710327148438,-146.98904418945312
1672829352790175000,4.886175048828125,-256.08624267578125,-64.15463256835938,-147.01779174804688
1672829352800202800,4.89620263671875,-255.6019744873047,-63.99238586425781,-146.8289794921875
1672829352810230800,4.906230712890625,-256.328125,-63.69293212890625,-146.7455596923828
1672829352820259800,4.916259765625,-256.10003662109375,-63.570770263671875,-147.2415771484375
1672829352830288000,4.926287841796875,-256.22442626953125,-63.68034362792969,-146.95700073242188
1672829352840316000,4.93631591796875,-256.46673583984375,-63.950714111328125,-146.89222717285156
1672829352850342700,4.9463427734375,-255.8100128173828,-63.6070556640625,-147.13160705566406
1672829352860370000,4.956369873046875,-256.3035583496094,-63.82667541503906,-147.10372924804688
1672829352870398700,4.966398681640625,-256.1403503417969,-63.98011779785156,-146.97695922851562
1672829352880424700,4.9764248046875,-256.0521240234375,-63.79289245605469,-146.9874725341797
1672829352890453800,4.986453857421875,-255.85714721679688,-63.467498779296875,-146.92689514160156
1672829352900480800,4.996480712890625,-255.42645263671875,-63.83000183105469,-147.080810546875
1672829352910508000,5.006508056640625,-256.0926208496094,-64.14816284179688,-146.98667907714844
1672829352920536800,5.016536865234375,-255.93780517578125,-63.95965576171875,-147.36224365234375
1672829352930564900,5.02656494140625,-256.0291748046875,-63.55650329589844,-147.22227478027344
1672829352940591900,5.036591796875,-256.01275634765625,-64.18241882324219,-147.36062622070312
1672829352950620000,5.046619873046875,-256.50396728515625,-64.01893615722656,-147.28082275390625
1672829352960648000,5.05664794921875,-255.4954376220703,-64.11611938476562,-147.7873992919922
1672829352970676000,5.066676025390625,-256.1837158203125,-64.04789733886719,-147.84109497070312
1672829352980704800,5.076704833984375,-255.95327758789062,-64.16650390625,-148.47894287109375
1672829352990732800,5.08673291015625,-256.1274108886719,-64.65786743164062,-148.52294921875
1672829353000760800,5.0967607421875,-255.7884063720703,-64.89788818359375,-148.99966430664062
1672829353010788900,5.106788818359375,-256.36944580078125,-64.89637756347656,-149.32162475585938
1672829353020816000,5.11681591796875,-256.3568115234375,-65.25286865234375,-149.47584533691406
1672829353030843000,5.1268427734375,-256.3453369140625,-65.33439636230469,-149.4065704345703
1672829353040872700,5.136872802734375,-255.7279052734375,-65.86677551269531,-150.07749938964844
1672829353050902000,5.146902099609375,-256.1938171386719,-65.83827209472656,-150.33018493652344
1672829353060929800,5.1569296875,-255.82810974121094,-65.79466247558594,-151.1792449951172
1672829353070959900,5.1669599609375,-255.8643798828125,-66.03390502929688,-150.9228515625
1672829353080988000,5.17698779296875,-255.33445739746094,-66.35293579101562,-151.13636779785156
1672829353091016000,5.187015869140625,-256.2910461425781,-66.27691650390625,-151.17005920410156
1672829353101042700,5.197042724609375,-255.16940307617188,-66.16554260253906,-151.54678344726562
1672829353111071700,5.20707177734375,-255.95816040039062,-66.36106872558594,-151.84417724609375
1672829353121100800,5.217100830078125,-255.58151245117188,-66.87794494628906,-152.2854461669922
1672829353131127800,5.2271279296875,-255.48817443847656,-67.25839233398438,-152.2425994873047
1672829353141158000,5.237157958984375,-256.11199951171875,-66.95619201660156,-152.70281982421875
1672829353151185700,5.247185546875,-256.8138427734375,-67.29388427734375,-153.07998657226562
1672829353161214700,5.257214599609375,-256.0934753417969,-67.32313537597656,-153.38694763183594
1672829353171243000,5.267242919921875,-256.8267822265625,-67.75421142578125,-153.72804260253906
1672829353181270800,5.277270751953125,-256.01751708984375,-68.27699279785156,-153.97979736328125
1672829353191299800,5.2872998046875,-255.72068786621094,-68.77842712402344,-153.7675323486328
1672829353201330000,5.297329833984375,-255.34573364257812,-69.05079650878906,-154.84214782714844
1672829353211357000,5.30735693359375,-255.47897338867188,-68.78553771972656,-154.41578674316406
1672829353221386000,5.317385986328125,-255.47198486328125,-69.30467224121094,-154.4790496826172
1672829353231415800,5.327415771484375,-256.13714599609375,-69.43629455566406,-154.94769287109375
1672829353241444900,5.33744482421875,-255.53431701660156,-69.74722290039062,-155.01390075683594
1672829353251474000,5.347473876953125,-255.73765563964844,-70.11769104003906,-155.18893432617188
1672829353261501700,5.357501708984375,-254.78897094726562,-70.18087768554688,-155.45770263671875
1672829353271531800,5.36753173828125,-256.2239074707031,-70.55036926269531,-155.5455322265625
1672829353281560000,5.37756005859375,-254.91688537597656,-70.70137023925781,-155.6433868408203
1672829353291587800,5.387587890625,-255.80810546875,-70.97935485839844,-155.64952087402344
1672829353301618000,5.397617919921875,-254.92665100097656,-70.89405822753906,-156.0553436279297
1672829353311648000,5.40764794921875,-255.2302703857422,-71.10935974121094,-155.96763610839844
1672829353321677800,5.417677734375,-255.20785522460938,-71.435791015625,-155.91310119628906
1672829353331708000,5.4277080078125,-255.96116638183594,-71.52662658691406,-156.12017822265625
1672829353341736000,5.43773583984375,-255.37757873535156,-71.3304443359375,-156.3439178466797
1672829353351765000,5.447764892578125,-255.42202758789062,-71.08993530273438,-156.40599060058594
1672829353361795800,5.4577958984375,-254.976318359375,-71.06961059570312,-156.2747039794922
1672829353371826000,5.467825927734375,-255.83737182617188,-71.02531433105469,-155.8998565673828
1672829353381856000,5.47785595703125,-255.8183135986328,-71.15322875976562,-156.24920654296875
1672829353391886800,5.487886962890625,-255.7943878173828,-70.95854187011719,-156.30967712402344
1672829353401918000,5.49791796875,-255.6380615234375,-71.00599670410156,-156.24310302734375
1672829353411946800,5.50794677734375,-255.74081420898438,-70.89070129394531,-156.29656982421875
1672829353421979000,5.517978759765625,-254.98468017578125,-71.345947265625,-156.2613525390625
1672829353432008700,5.5280087890625,-255.9053955078125,-71.0640869140625,-156.1951141357422
1672829353442038800,5.538038818359375,-255.40794372558594,-71.05241394042969,-156.0579376220703
1672829353452067800,5.54806787109375,-255.8461456298828,-71.20365905761719,-156.07379150390625
1672829353462098000,5.558097900390625,-254.76649475097656,-70.54351806640625,-156.08860778808594
1672829353472127000,5.568126953125,-255.53097534179688,-70.86204528808594,-155.8540496826172
1672829353482155800,5.57815576171875,-255.5363006591797,-71.41889953613281,-156.24716186523438
1672829353492185900,5.588185791015625,-255.65359497070312,-70.87051391601562,-156.278076171875
1672829353502215000,5.59821484375,-255.42042541503906,-70.99266052246094,-156.47509765625
1672829353512245000,5.608244873046875,-255.90298461914062,-70.74433898925781,-156.5855712890625
1672829353522273800,5.618273681640625,-255.73220825195312,-71.28274536132812,-156.04420471191406
1672829353532304000,5.628303955078125,-255.29803466796875,-70.68023681640625,-156.05923461914062
1672829353542333000,5.6383330078125,-255.21994018554688,-71.10873413085938,-155.9705810546875
1672829353552362000,5.648362060546875,-255.79513549804688,-70.90013122558594,-155.65518188476562
1672829353562389000,5.658388916015625,-255.41290283203125,-71.10020446777344,-156.0456085205078
1672829353572419800,5.668419921875,-255.9158935546875,-70.7513427734375,-155.8565673828125
1672829353582447900,5.67844775390625,-255.2410125732422,-71.1864013671875,-155.8334197998047
1672829353592477000,5.688476806640625,-255.3787078857422,-70.53306579589844,-155.69705200195312
1672829353602506800,5.6985068359375,-255.54745483398438,-70.53382873535156,-155.25897216796875
1672829353612536000,5.7085361328125,-256.5074157714844,-70.95643615722656,-155.67181396484375
1672829353622564900,5.71856494140625,-255.61587524414062,-70.5135498046875,-155.0519256591797
1672829353632594000,5.728593994140625,-255.9508514404297,-70.07539367675781,-154.72109985351562
1672829353642623000,5.738623046875,-255.6604461669922,-70.166259765625,-154.22332763671875
1672829353652652800,5.74865283203125,-255.77540588378906,-69.62629699707031,-154.4242706298828
1672829353662681900,5.758681884765625,-255.2029266357422,-69.79777526855469,-154.250244140625
1672829353672711000,5.7687109375,-256.140625,-69.45674133300781,-153.03158569335938
1672829353682739700,5.77873974609375,-255.9795684814453,-69.21188354492188,-152.90985107421875
1672829353692767700,5.788767822265625,-255.98487854003906,-68.67376708984375,-152.89569091796875
1672829353702795800,5.798795654296875,-255.4536895751953,-68.84886169433594,-152.4605255126953
1672829353712827000,5.808826904296875,-255.32540893554688,-68.54953002929688,-151.75537109375
1672829353722855000,5.81885498046875,-255.4956817626953,-68.53388977050781,-151.70263671875
1672829353732882700,5.828882568359375,-255.649658203125,-67.86172485351562,-151.13255310058594
1672829353742913000,5.8389130859375,-255.8108367919922,-67.6092529296875,-150.78199768066406
1672829353752943900,5.84894384765625,-256.0380859375,-67.01919555664062,-150.115478515625
1672829353762973000,5.858972900390625,-256.0719299316406,-67.01138305664062,-149.869140625
1672829353773002800,5.869002685546875,-256.304931640625,-66.67144775390625,-149.5946502685547
1672829353783032000,5.879031982421875,-255.375,-66.63458251953125,-148.9937744140625
1672829353793062000,5.889061767578125,-255.09317016601562,-65.94630432128906,-148.37271118164062
1672829353803090700,5.899090576171875,-255.3319854736328,-65.84063720703125,-147.88397216796875
1672829353813120000,5.9091201171875,-255.93612670898438,-65.45025634765625,-147.3466339111328
1672829353823146800,5.919146728515625,-255.4790802001953,-65.59542846679688,-147.5414276123047
1672829353833175000,5.929175048828125,-255.98428344726562,-65.18447875976562,-146.64617919921875
1672829353843204900,5.939204833984375,-255.2913818359375,-64.95510864257812,-146.34463500976562
1672829353853235000,5.94923486328125,-255.93954467773438,-64.63200378417969,-145.83131408691406
1672829353863264800,5.9592646484375,-255.98777770996094,-64.57795715332031,-145.73814392089844
1672829353873292800,5.969292724609375,-256.5426025390625,-64.15824890136719,-144.8599853515625
1672829353883323000,5.979322998046875,-256.4439697265625,-64.14688110351562,-145.26760864257812
1672829353893350000,5.989349853515625,-256.68853759765625,-63.926177978515625,-144.74282836914062
1672829353903378000,5.9993779296875,-256.5401611328125,-63.68452453613281,-144.5843963623047
1672829353913407700,6.00940771484375,-256.66375732421875,-63.63800048828125,-144.1411590576172
1672829353923436000,6.01943603515625,-256.71051025390625,-63.7335205078125,-144.1446533203125
1672829353933465900,6.0294658203125,-256.6476135253906,-63.45103454589844,-144.0216522216797
1672829353943495000,6.039494873046875,-255.75779724121094,-63.603759765625,-143.78524780273438
1672829353953524700,6.049524658203125,-256.3612976074219,-63.53157043457031,-143.66787719726562
1672829353963553800,6.0595537109375,-256.758544921875,-63.29833984375,-143.8084259033203
1672829353973584000,6.069583984375,-256.3850402832031,-63.25872802734375,-143.67335510253906
1672829353983612700,6.07961279296875,-255.90269470214844,-63.46119689941406,-144.0323028564453
1672829353993642800,6.089642822265625,-256.23907470703125,-63.08924865722656,-144.00961303710938
1672829354003671800,6.099671875,-255.70407104492188,-63.75285339355469,-143.92391967773438
1672829354013703000,6.109702880859375,-255.9886474609375,-63.058258056640625,-143.77545166015625
1672829354023732000,6.11973193359375,-255.95059204101562,-63.20001220703125,-144.1785125732422
1672829354033762000,6.129761962890625,-256.4061584472656,-63.34716796875,-143.69940185546875
1672829354043789800,6.139789794921875,-256.13018798828125,-63.394012451171875,-143.92019653320312
1672829354053819000,6.14981884765625,-256.12384033203125,-63.58619689941406,-143.62879943847656
1672829354063847700,6.15984765625,-256.25775146484375,-63.37858581542969,-144.03211975097656
1672829354073877800,6.169877685546875,-256.7224426269531,-63.891265869140625,-143.9774932861328
1672829354083906000,6.179906005859375,-256.2796630859375,-63.60575866699219,-144.09197998046875
1672829354093932000,6.18993212890625,-256.47796630859375,-63.41471862792969,-144.0849151611328
1672829354103961900,6.1999619140625,-255.55386352539062,-63.72496032714844,-144.3202362060547
1672829354113988900,6.20998876953125,-256.6449890136719,-63.62895202636719,-143.80319213867188
1672829354124018000,6.220017822265625,-256.322021484375,-63.70957946777344,-143.93824768066406
1672829354134046000,6.2300458984375,-256.5126953125,-63.37071228027344,-144.47537231445312
1672829354144075000,6.240074951171875,-256.23590087890625,-63.5155029296875,-144.662353515625
1672829354154102800,6.250102783203125,-256.8602294921875,-63.670867919921875,-144.483154296875
1672829354164130800,6.260130859375,-256.18798828125,-63.96990966796875,-144.68106079101562
1672829354174157800,6.27015771484375,-256.2725830078125,-63.97862243652344,-144.76156616210938
1672829354184187000,6.280186767578125,-256.03955078125,-63.68597412109375,-145.23056030273438
1672829354194215700,6.290215576171875,-256.5707702636719,-63.63276672363281,-144.86598205566406
1672829354204245800,6.300245849609375,-255.42974853515625,-64.345703125,-145.68252563476562
1672829354214274800,6.31027490234375,-255.7532958984375,-63.99388122558594,-145.38671875
1672829354224303900,6.320303955078125,-255.5174560546875,-64.13407897949219,-145.84323120117188
1672829354234334000,6.330333984375,-256.32342529296875,-64.38357543945312,-145.72915649414062
1672829354244362800,6.34036279296875,-255.59722900390625,-64.47003173828125,-146.424560546875
1672829354254392800,6.350392822265625,-255.48048400878906,-64.86830139160156,-146.44081115722656
1672829354264424700,6.3604248046875,-255.3953857421875,-64.86099243164062,-146.63267517089844
1672829354274454800,6.370454833984375,-256.1412048339844,-64.98133850097656,-147.1551513671875
1672829354284484900,6.38048486328125,-255.93963623046875,-65.33029174804688,-147.7490234375
1672829354294516000,6.390515869140625,-255.8140411376953,-65.02743530273438,-147.66354370117188
1672829354304545800,6.4005458984375,-255.45445251464844,-65.85105895996094,-148.24464416503906
1672829354314576000,6.410575927734375,-255.58126831054688,-65.85926818847656,-148.45974731445312
1672829354324605000,6.42060498046875,-255.56326293945312,-66.12223815917969,-148.97491455078125
1672829354334636000,6.430635986328125,-255.3900604248047,-65.85519409179688,-149.23379516601562
1672829354344666000,6.440666015625,-255.20716857910156,-66.21104431152344,-149.29348754882812
1672829354354694000,6.45069384765625,-255.62612915039062,-66.50906372070312,-149.45254516601562
1672829354364723000,6.460722900390625,-255.13270568847656,-66.83084106445312,-150.04342651367188
1672829354374751700,6.470751708984375,-255.14334106445312,-66.81425476074219,-150.55828857421875
1672829354384780800,6.48078076171875,-255.49462890625,-67.19564819335938,-150.48199462890625
1672829354394811000,6.490810791015625,-255.82330322265625,-66.92471313476562,-150.9837646484375
1672829354404842000,6.500842041015625,-255.59962463378906,-67.60115051269531,-150.79991149902344
1672829354414871800,6.510871826171875,-255.3315887451172,-67.33186340332031,-151.34634399414062
1672829354424901000,6.520901123046875,-255.98141479492188,-67.70849609375,-151.31527709960938
1672829354434930700,6.5309306640625,-255.8328857421875,-67.68325805664062,-151.85108947753906
1672829354444960800,6.540960693359375,-255.60440063476562,-67.81974792480469,-152.02255249023438
1672829354454992000,6.550991943359375,-255.8832550048828,-67.78204345703125,-152.08193969726562
1672829354465021000,6.56102099609375,-255.72914123535156,-68.44705200195312,-152.53038024902344
1672829354475051000,6.571051025390625,-255.30397033691406,-68.48243713378906,-152.7379913330078
1672829354485080000,6.581080078125,-256.07861328125,-68.73887634277344,-153.08348083496094
1672829354495108900,6.59110888671875,-255.79010009765625,-68.5697021484375,-153.46775817871094
1672829354505140700,6.601140625,-255.74440002441406,-69.64260864257812,-153.7654266357422
1672829354515174000,6.611173828125,-255.83065795898438,-69.16319274902344,-154.1200408935547
1672829354525205000,6.621205078125,-255.8001708984375,-69.44194030761719,-154.7141571044922
1672829354535234800,6.63123486328125,-255.67617797851562,-69.53239440917969,-155.02569580078125
1672829354545265000,6.641264892578125,-256.18701171875,-69.94906616210938,-155.53221130371094
1672829354555293000,6.65129296875,-256.31884765625,-70.45442199707031,-156.06634521484375
1672829354565321000,6.661321044921875,-256.3519287109375,-70.61555480957031,-156.29075622558594
1672829354575349800,6.671349853515625,-256.43853759765625,-70.42021179199219,-156.4958953857422
1672829354585379800,6.6813798828125,-257.1994323730469,-71.32841491699219,-156.866943359375
1672829354595408000,6.691407958984375,-256.25189208984375,-71.27052307128906,-157.55960083007812
1672829354605436000,6.701435791015625,-257.00189208984375,-71.93473815917969,-157.25901794433594
1672829354615465000,6.71146484375,-256.6328125,-72.02777099609375,-158.09063720703125
1672829354625492700,6.72149267578125,-257.31268310546875,-72.29478454589844,-158.1227264404297
1672829354635522800,6.731522705078125,-257.0740051269531,-72.45603942871094,-158.5816650390625
1672829354645550800,6.74155078125,-257.1787414550781,-72.65342712402344,-158.539306640625
1672829354655580000,6.751579833984375,-257.56414794921875,-73.17147827148438,-158.96237182617188
1672829354665609000,6.76160888671875,-256.94622802734375,-73.04718017578125,-159.31204223632812
1672829354675638000,6.771637939453125,-256.7001953125,-73.11026000976562,-159.93052673339844
1672829354685666800,6.781666748046875,-257.36553955078125,-73.70355224609375,-159.81996154785156
1672829354695694800,6.79169482421875,-257.63714599609375,-73.65711975097656,-159.84300231933594
1672829354705726000,6.801725830078125,-257.1343078613281,-74.47926330566406,-160.10145568847656
1672829354715755000,6.811755126953125,-257.2572021484375,-74.3983154296875,-160.93267822265625
1672829354725783800,6.82178369140625,-257.4725341796875,-74.19955444335938,-160.8262481689453
1672829354735811800,6.831811767578125,-258.2750244140625,-75.09065246582031,-161.05410766601562
1672829354745841400,6.84184130859375,-258.1830139160156,-75.21621704101562,-161.2748260498047
1672829354755871500,6.85187158203125,-258.06982421875,-75.74734497070312,-161.7908477783203
1672829354765899500,6.8618994140625,-258.1141357421875,-75.89634704589844,-161.51956176757812
1672829354775930400,6.871930419921875,-257.70904541015625,-76.19242858886719,-162.30404663085938
1672829354785958700,6.881958740234375,-258.361572265625,-76.0745849609375,-162.23362731933594
1672829354795988500,6.891988525390625,-258.23577880859375,-76.40673828125,-162.3975830078125
1672829354806018600,6.9020185546875,-258.39288330078125,-77.02227783203125,-162.42068481445312
1672829354816046600,6.912046630859375,-258.4033203125,-76.96734619140625,-163.13148498535156
1672829354826075600,6.92207568359375,-258.6622314453125,-77.07192993164062,-163.3934326171875
1672829354836106500,6.9321064453125,-258.8809814453125,-77.39497375488281,-163.6946563720703
1672829354846134500,6.942134521484375,-258.7397766113281,-77.51412963867188,-163.31492614746094
1672829354856163600,6.95216357421875,-259.12493896484375,-77.78114318847656,-163.71438598632812
1672829354866192600,6.962192626953125,-259.48345947265625,-78.28334045410156,-163.8624267578125
1672829354876220400,6.972220458984375,-260.0330505371094,-77.85142517089844,-164.08653259277344
1672829354886247700,6.98224755859375,-260.040283203125,-78.52606201171875,-164.2536163330078
1672829354896277500,6.992277587890625,-259.538818359375,-78.9146728515625,-164.6890411376953
1672829354906306600,7.002306640625,-260.0998229980469,-79.33416748046875,-164.4190673828125
1672829354916337400,7.01233740234375,-259.83514404296875,-79.3446044921875,-164.46566772460938
1672829354926365700,7.02236572265625,-259.79656982421875,-79.233154296875,-164.83120727539062
1672829354936394500,7.03239453125,-260.65216064453125,-79.76802062988281,-165.12791442871094
1672829354946422500,7.042422607421875,-260.9541931152344,-80.06396484375,-164.8538360595703
1672829354956451300,7.052451416015625,-261.3137512207031,-80.48396301269531,-165.13241577148438
1672829354966478600,7.062478515625,-261.10137939453125,-80.30479431152344,-165.35462951660156
1672829354976506400,7.07250634765625,-260.6694641113281,-80.30162048339844,-165.66273498535156
1672829354986537500,7.082537353515625,-260.76202392578125,-80.87649536132812,-165.455322265625
1672829354996565500,7.0925654296875,-261.0467529296875,-81.21183776855469,-166.09869384765625
1672829355006593500,7.102593505859375,-261.8396911621094,-81.40121459960938,-165.98680114746094
1672829355016622600,7.11262255859375,-262.0560302734375,-81.67506408691406,-166.33740234375
1672829355026651600,7.122651611328125,-262.31591796875,-81.43026733398438,-166.2779541015625
1672829355036680400,7.132680419921875,-262.59375,-82.25946044921875,-166.52886962890625
1672829355046708500,7.14270849609375,-262.26263427734375,-82.30683898925781,-166.62246704101562
1672829355056736500,7.152736572265625,-262.291259765625,-82.74319458007812,-166.875244140625
1672829355066765600,7.162765625,-262.67388916015625,-83.19216918945312,-166.78030395507812
1672829355076795600,7.172795654296875,-262.86041259765625,-83.52726745605469,-167.18751525878906
1672829355086824400,7.182824462890625,-263.7178955078125,-83.64344787597656,-167.15663146972656
1672829355096853500,7.192853515625,-263.27032470703125,-84.18728637695312,-167.3166961669922
1672829355106884400,7.20288427734375,-264.29815673828125,-83.9171142578125,-167.1001739501953
1672829355116914400,7.21291455078125,-263.94012451171875,-84.65589904785156,-167.8807373046875
1672829355126943500,7.222943603515625,-264.4720764160156,-84.57594299316406,-167.51832580566406
1672829355136973600,7.2329736328125,-264.61163330078125,-84.92405700683594,-167.81964111328125
1672829355147004700,7.243004638671875,-264.9493103027344,-84.71292114257812,-167.82003784179688
1672829355157033500,7.253033447265625,-264.6112060546875,-85.04225158691406,-167.76502990722656
1672829355167060700,7.263060791015625,-265.1329345703125,-85.65092468261719,-167.73036193847656
1672829355177088500,7.273088623046875,-265.46209716796875,-85.5244140625,-167.9245147705078
1672829355187118600,7.28311865234375,-266.1026611328125,-86.44541931152344,-168.0519256591797
1672829355197148700,7.293148681640625,-265.8992919921875,-86.35493469238281,-168.49630737304688
1672829355207178500,7.303178466796875,-266.93585205078125,-86.57052612304688,-168.10708618164062
1672829355217207600,7.31320751953125,-266.6272888183594,-86.5059814453125,-167.96932983398438
1672829355227235600,7.323235595703125,-267.2996826171875,-86.77854919433594,-167.7786407470703
1672829355237264600,7.3332646484375,-267.7794189453125,-87.49421691894531,-168.31130981445312
1672829355247293400,7.34329345703125,-268.33453369140625,-87.21237182617188,-167.95489501953125
1672829355257322500,7.353322509765625,-268.7038879394531,-87.50375366210938,-167.9635009765625
1672829355267353600,7.363353515625,-269.0206298828125,-87.88275146484375,-167.98947143554688
1672829355277382700,7.373382568359375,-269.16778564453125,-87.95173645019531,-168.4246063232422
1672829355287412500,7.38341259765625,-269.2655029296875,-87.91435241699219,-167.8765106201172
1672829355297442600,7.393442626953125,-269.6134338378906,-87.75996398925781,-167.8123016357422
1672829355307469600,7.403469482421875,-269.5052795410156,-87.91221618652344,-167.4631805419922
1672829355317498400,7.413498291015625,-269.94384765625,-87.7421875,-167.3798370361328
1672829355327528400,7.423528564453125,-270.6937255859375,-88.00384521484375,-167.17422485351562
1672829355337557500,7.4335576171875,-270.42218017578125,-88.26942443847656,-167.65069580078125
1672829355347588600,7.443588623046875,-271.21038818359375,-88.44612121582031,-167.10076904296875
1672829355357615400,7.453615478515625,-271.0210266113281,-88.20169067382812,-167.4238739013672
1672829355367643600,7.4636435546875,-271.3089599609375,-88.23828125,-166.7132568359375
1672829355377672400,7.47367236328125,-270.84698486328125,-88.24191284179688,-166.80377197265625
1672829355387700500,7.483700439453125,-271.24481201171875,-88.56497192382812,-166.432373046875
1672829355397729500,7.4937294921875,-271.2787170410156,-88.44166564941406,-166.58717346191406
1672829355407758600,7.503758544921875,-271.36944580078125,-88.64146423339844,-166.47317504882812
1672829355417788400,7.513788330078125,-271.00921630859375,-88.79991149902344,-166.2521209716797
1672829355427817500,7.5238173828125,-272.23675537109375,-88.55291748046875,-165.97425842285156
1672829355437846500,7.533846435546875,-271.412353515625,-88.76664733886719,-166.5207061767578
1672829355447874600,7.54387451171875,-271.76019287109375,-88.58253479003906,-166.2509765625
1672829355457903600,7.553903564453125,-270.79034423828125,-88.86662292480469,-166.4086456298828
1672829355467933400,7.563933349609375,-271.25848388671875,-88.69378662109375,-165.9658966064453
1672829355477962500,7.57396240234375,-271.821044921875,-88.7117919921875,-166.34466552734375
1672829355487989500,7.583989501953125,-271.6248779296875,-89.18229675292969,-166.031005859375
1672829355498017500,7.594017578125,-271.4111022949219,-88.99238586425781,-166.3429412841797
1672829355508045300,7.60404541015625,-271.5687255859375,-89.216064453125,-166.20321655273438
1672829355518074600,7.61407470703125,-271.38433837890625,-88.74913024902344,-166.33273315429688
1672829355528103700,7.624103759765625,-271.58209228515625,-88.5467529296875,-166.20362854003906
1672829355538132500,7.634132568359375,-271.12188720703125,-88.720703125,-166.3273162841797
1672829355548160500,7.644160400390625,-271.16815185546875,-88.57363891601562,-166.43577575683594
1672829355558188500,7.6541884765625,-271.02252197265625,-88.77598571777344,-166.30284118652344
1672829355568217600,7.664217529296875,-271.98297119140625,-88.5172119140625,-166.02752685546875
1672829355578247400,7.674247314453125,-271.1927185058594,-88.93797302246094,-166.2586669921875
1672829355588277500,7.684277587890625,-271.9129638671875,-88.80186462402344,-165.9603729248047
1672829355598306300,7.694306396484375,-271.7320556640625,-88.67018127441406,-166.3738250732422
1672829355608335600,7.704335693359375,-270.8979797363281,-88.71923828125,-166.39137268066406
1672829355618364700,7.71436474609375,-271.54827880859375,-88.818115234375,-166.00669860839844
1672829355628395500,7.7243955078125,-271.4710998535156,-88.68756103515625,-165.9396514892578
1672829355638424600,7.734424560546875,-271.5536193847656,-88.53189086914062,-166.10617065429688
1672829355648453400,7.744453369140625,-271.57623291015625,-88.51649475097656,-166.10931396484375
1672829355658484500,7.754484375,-271.1299133300781,-88.48155212402344,-166.39866638183594
1672829355668514600,7.7645146484375,-271.71575927734375,-89.08201599121094,-166.17173767089844
1672829355678543600,7.774543701171875,-271.5632019042969,-88.89381408691406,-166.66612243652344
1672829355688574500,7.784574462890625,-271.708740234375,-89.06626892089844,-165.9595489501953
1672829355698603500,7.794603515625,-271.25994873046875,-88.72634887695312,-165.89373779296875
1672829355708633300,7.80463330078125,-270.90631103515625,-88.68035888671875,-165.97299194335938
1672829355718661600,7.81466162109375,-270.93359375,-89.19381713867188,-165.8172149658203
1672829355728691500,7.82469140625,-271.65496826171875,-88.7720947265625,-165.97564697265625
1672829355738721500,7.834721435546875,-271.1153564453125,-88.98916625976562,-166.05722045898438
1672829355748755700,7.844755615234375,-271.6661071777344,-88.84249877929688,-166.0583953857422
1672829355758785500,7.85478564453125,-271.1849365234375,-88.74287414550781,-165.80052185058594
1672829355768815600,7.864815673828125,-271.5753173828125,-88.53102111816406,-166.1103057861328
1672829355778845400,7.874845458984375,-271.24169921875,-88.68269348144531,-165.7010040283203
1672829355788875500,7.88487548828125,-271.64959716796875,-88.95144653320312,-165.69778442382812
1672829355798906600,7.89490673828125,-271.77032470703125,-89.0556640625,-166.04612731933594
1672829355808934700,7.9049345703125,-271.60614013671875,-88.41654968261719,-166.067626953125
1672829355818965800,7.9149658203125,-271.6981201171875,-88.67558288574219,-166.0299835205078
1672829355828998700,7.92499853515625,-271.112548828125,-88.64283752441406,-166.1924591064453
1672829355839030500,7.935030517578125,-271.47430419921875,-89.01889038085938,-166.1268768310547
1672829355849060600,7.945060546875,-271.48052978515625,-88.74513244628906,-165.6562042236328
1672829355859089700,7.955089599609375,-271.13958740234375,-88.38565063476562,-165.91287231445312
1672829355869118700,7.96511865234375,-271.7778625488281,-88.58915710449219,-166.10037231445312
1672829355879149600,7.975149658203125,-270.9503173828125,-88.54524230957031,-166.116943359375
1672829355889178600,7.9851787109375,-271.4124755859375,-88.70518493652344,-165.95706176757812
1672829355899208400,7.99520849609375,-271.59918212890625,-88.82353210449219,-166.02264404296875
1672829355909237500,8.005237548828125,-271.26251220703125,-88.28634643554688,-166.02740478515625
1672829355919267600,8.015267578125,-271.5789794921875,-88.76393127441406,-166.23348999023438
1672829355929298700,8.025298583984375,-271.7679138183594,-88.554443359375,-166.3422088623047
1672829355939329500,8.03532958984375,-271.5712890625,-88.79266357421875,-166.0751190185547
1672829355949361700,8.045361572265625,-271.66168212890625,-88.4837646484375,-166.0174102783203
1672829355959390700,8.055390625,-271.2930908203125,-88.54449462890625,-166.22598266601562
1672829355969421600,8.065421630859374,-272.26068115234375,-88.643310546875,-166.0228729248047
1672829355979452700,8.07545263671875,-271.9256896972656,-88.65946960449219,-165.94236755371094
1672829355989482800,8.085482666015626,-272.12481689453125,-88.7220458984375,-166.0598907470703
1672829355999512600,8.0955126953125,-271.99896240234375,-88.71279907226562,-166.31085205078125
1672829356009541600,8.105541748046875,-271.59942626953125,-88.13235473632812,-166.34938049316406
1672829356019570700,8.11557080078125,-271.3189392089844,-88.7064208984375,-165.9907684326172
1672829356029600500,8.1256005859375,-271.5343017578125,-88.42872619628906,-165.66079711914062
1672829356039630600,8.135630615234374,-271.3028869628906,-88.30831909179688,-166.18399047851562
1672829356049660700,8.14566064453125,-271.6016540527344,-88.05128479003906,-166.46771240234375
1672829356059690800,8.155690673828126,-270.7959899902344,-87.90509033203125,-166.4660186767578
1672829356069719600,8.165719482421874,-271.49609375,-88.20478820800781,-166.44573974609375
1672829356079748600,8.17574853515625,-271.3127746582031,-88.03886413574219,-166.37310791015625
1672829356089777700,8.185777587890625,-270.40167236328125,-87.70967102050781,-166.687744140625
1672829356099808800,8.195808837890626,-271.0301513671875,-87.61355590820312,-166.75042724609375
1672829356109837600,8.205837646484374,-271.6537780761719,-87.42031860351562,-166.58084106445312
1672829356119866600,8.21586669921875,-271.220458984375,-87.3380126953125,-165.95144653320312
1672829356129895700,8.225895751953125,-270.8995361328125,-87.11540222167969,-166.22984313964844
1672829356139924500,8.235924560546875,-271.0682373046875,-87.30270385742188,-166.64547729492188
1672829356149953500,8.24595361328125,-270.4461669921875,-86.84884643554688,-166.7198028564453
1672829356159982600,8.255982666015624,-270.23126220703125,-86.86668395996094,-166.75238037109375
1672829356170011600,8.26601171875,-270.03619384765625,-86.53924560546875,-166.5281982421875
1672829356180040700,8.276040771484375,-269.8045959472656,-86.01347351074219,-166.92816162109375
1672829356190069800,8.28606982421875,-270.24725341796875,-85.81629943847656,-166.38978576660156
1672829356200099600,8.296099609375,-269.7314147949219,-85.65408325195312,-166.9124298095703
1672829356210129400,8.30612939453125,-269.67071533203125,-85.20584106445312,-166.8648681640625
1672829356220157700,8.31615771484375,-268.9634704589844,-85.283203125,-166.7711181640625
1672829356230185500,8.326185546875,-268.93798828125,-84.8424072265625,-166.8263702392578
1672829356240214500,8.336214599609375,-268.6318054199219,-84.50802612304688,-166.8878173828125
1672829356250242800,8.346242919921876,-267.92425537109375,-84.08287048339844,-166.86863708496094
1672829356260273700,8.356273681640625,-267.23388671875,-83.52304077148438,-167.02113342285156
1672829356270304800,8.3663046875,-267.482177734375,-83.11747741699219,-166.645751953125
1672829356280334600,8.37633447265625,-266.8477783203125,-82.81251525878906,-166.89755249023438
1672829356290364400,8.386364501953125,-266.635009765625,-82.13882446289062,-166.4175567626953
1672829356300394500,8.39639453125,-265.2056884765625,-81.60136413574219,-166.3804168701172
1672829356310424600,8.406424560546874,-264.87164306640625,-80.810791015625,-165.6832733154297
1672829356320453600,8.41645361328125,-264.3769226074219,-80.64906311035156,-165.6043701171875
1672829356330483700,8.426483642578125,-264.23614501953125,-79.45838928222656,-165.34361267089844
1672829356340512500,8.436512451171875,-264.25506591796875,-79.24592590332031,-165.15390014648438
1672829356350542600,8.44654248046875,-263.9183349609375,-78.89537048339844,-164.98464965820312
1672829356360571600,8.456571533203125,-263.31292724609375,-78.34431457519531,-164.45828247070312
1672829356370600700,8.4666005859375,-263.3597106933594,-77.97377014160156,-164.29733276367188
1672829356380630500,8.476630615234376,-262.91851806640625,-77.65576171875,-164.09588623046875
1672829356390660600,8.48666064453125,-262.48968505859375,-76.81443786621094,-163.82498168945312
1672829356400690400,8.4966904296875,-261.58758544921875,-76.583984375,-163.6439666748047
1672829356410721500,8.506721435546876,-261.5784606933594,-75.85086059570312,-163.07208251953125
1672829356420751600,8.516751708984375,-261.50750732421875,-75.79032897949219,-162.89849853515625
1672829356430782500,8.526782470703125,-261.0921630859375,-75.22911071777344,-162.55340576171875
1672829356440811500,8.5368115234375,-260.59063720703125,-75.1514892578125,-162.47935485839844
1672829356450840800,8.5468408203125,-260.6142578125,-74.65953063964844,-162.01315307617188
1672829356460869600,8.55686962890625,-260.06121826171875,-73.93832397460938,-161.68507385253906
1672829356470899500,8.5668994140625,-260.1493225097656,-73.77618408203125,-161.1288604736328
1672829356480929500,8.576929443359376,-259.83441162109375,-73.28330993652344,-160.9887237548828
1672829356490960600,8.586960693359375,-259.3713073730469,-73.05751037597656,-160.49591064453125
1672829356500988400,8.596988525390625,-259.19305419921875,-72.43563842773438,-160.05377197265625
1672829356511019800,8.607019775390626,-259.12060546875,-72.32572937011719,-159.52432250976562
1672829356521048600,8.617048583984374,-259.3496398925781,-72.11164855957031,-159.33120727539062
1672829356531078700,8.62707861328125,-259.89642333984375,-71.2833251953125,-159.1002655029297
1672829356541107700,8.637107666015625,-259.1795959472656,-71.22711181640625,-158.53616333007812
1672829356551137800,8.6471376953125,-259.2847595214844,-70.90998840332031,-158.00177001953125
1672829356561169700,8.657169677734375,-258.9721984863281,-70.77947998046875,-157.7769317626953
1672829356571200500,8.667200439453126,-259.14532470703125,-70.36048889160156,-157.59451293945312
1672829356581230600,8.677230712890625,-259.04901123046875,-70.13127136230469,-157.10121154785156
1672829356591261700,8.68726171875,-258.9759826660156,-69.89581298828125,-156.90664672851562
1672829356601290800,8.697290771484376,-258.63543701171875,-69.84159851074219,-156.64630126953125
1672829356611320600,8.707320556640624,-258.99969482421875,-69.29591369628906,-156.31700134277344
1672829356621350400,8.717350341796875,-258.9124755859375,-69.50874328613281,-156.07281494140625
1672829356631379700,8.727379638671875,-258.9072265625,-68.94807434082031,-155.88209533691406
1672829356641408800,8.73740869140625,-258.2594299316406,-69.18608093261719,-155.80221557617188
1672829356651437600,8.7474375,-258.95172119140625,-68.72250366210938,-155.4069061279297
1672829356661466600,8.757466552734375,-258.6503601074219,-68.14083862304688,-155.17654418945312
1672829356671496700,8.76749658203125,-258.19903564453125,-68.41842651367188,-154.39788818359375
1672829356681525800,8.77752587890625,-258,-68.19219970703125,-154.44732666015625
1672829356691554600,8.787554443359374,-258.51385498046875,-67.74127197265625,-153.86331176757812
1672829356701584600,8.797584716796875,-258.2242431640625,-67.72724914550781,-153.83419799804688
1672829356711615500,8.807615478515626,-258.4561767578125,-68.24569702148438,-153.92723083496094
1672829356721643800,8.817643798828126,-257.9106140136719,-67.25306701660156,-153.8027801513672
1672829356731673600,8.827673583984375,-258.0964660644531,-67.25473022460938,-153.01580810546875
1672829356741698800,8.83769873046875,-257.8888854980469,-66.491455078125,-153.19203186035156
1672829356751729000,8.84772900390625,-258.11126708984375,-66.82331848144531,-152.6171417236328
1672829356761756700,8.857756591796875,-258.00390625,-66.67340087890625,-152.37594604492188
1672829356771785700,8.86778564453125,-258.1235046386719,-66.71162414550781,-152.45639038085938
1672829356781814800,8.877814697265626,-257.85198974609375,-66.24913024902344,-152.1843719482422
1672829356791842800,8.8878427734375,-258.60394287109375,-66.07286071777344,-151.58819580078125
1672829356801872600,8.89787255859375,-257.7491455078125,-66.259033203125,-151.65011596679688
1672829356811902700,8.90790283203125,-258.25262451171875,-65.63589477539062,-151.45033264160156
1672829356821932800,8.917932861328126,-257.35565185546875,-65.53767395019531,-151.20681762695312
1672829356831963000,8.927962890625,-257.8865966796875,-65.18292236328125,-150.4330596923828
1672829356841991700,8.93799169921875,-257.80389404296875,-65.09049987792969,-150.57408142089844
1672829356852019700,8.948019775390625,-258.73895263671875,-65.185546875,-149.94200134277344
1672829356862048500,8.958048583984375,-257.7432861328125,-64.75544738769531,-149.97254943847656
1672829356872076800,8.968076904296876,-257.7403564453125,-64.66258239746094,-149.38296508789062
1672829356882105900,8.97810595703125,-257.75372314453125,-64.53410339355469,-149.500244140625
1672829356892135700,8.9881357421875,-258.47119140625,-63.81884765625,-149.06051635742188
1672829356902166800,8.998166748046875,-258.0487060546875,-64.11418151855469,-148.87828063964844
1672829356912196600,9.008196533203124,-258.3216552734375,-63.89921569824219,-148.28457641601562
1672829356922224600,9.018224609375,-257.29693603515625,-63.934326171875,-148.1947021484375
1672829356932254000,9.02825390625,-257.60052490234375,-63.982452392578125,-147.80177307128906
1672829356942281700,9.03828173828125,-258.60009765625,-63.794464111328125,-147.6322479248047
1672829356952310800,9.048310791015625,-258.49029541015625,-63.660003662109375,-147.11260986328125
1672829356962339600,9.058339599609376,-258.1085205078125,-63.60499572753906,-146.960693359375
1672829356972369700,9.06836962890625,-258.46502685546875,-63.54841613769531,-146.53436279296875
1672829356982399700,9.078399658203125,-257.44091796875,-63.33197021484375,-146.66175842285156
1672829356992429800,9.088429931640626,-257.92462158203125,-63.13322448730469,-145.75762939453125
1672829357002460700,9.098460693359375,-257.1513977050781,-63.51728820800781,-146.03634643554688
1672829357012491800,9.10849169921875,-257.76416015625,-62.986968994140625,-145.52821350097656
1672829357022521900,9.11852197265625,-257.97998046875,-63.028717041015625,-145.68788146972656
1672829357032551700,9.1285517578125,-258.4814453125,-62.863555908203125,-145.38890075683594
1672829357042579700,9.138579833984375,-257.72625732421875,-62.87290954589844,-145.63272094726562
1672829357052610600,9.148610595703126,-257.9994812011719,-63.03410339355469,-145.3516387939453
1672829357062639600,9.1586396484375,-257.195068359375,-63.190155029296875,-145.7384033203125
1672829357072668000,9.16866796875,-258.0343017578125,-62.58488464355469,-144.9862518310547
1672829357082696700,9.17869677734375,-258.0326232910156,-63.02494812011719,-145.3255157470703
1672829357092727600,9.1887275390625,-258.30535888671875,-62.81697082519531,-145.10739135742188
1672829357102760000,9.198760009765625,-258.2038269042969,-63.03642272949219,-145.46273803710938
1672829357112790800,9.208790771484376,-257.78045654296875,-62.773529052734375,-145.077392578125
1672829357122820600,9.218820556640624,-257.391357421875,-62.818603515625,-145.18980407714844
1672829357132848600,9.2288486328125,-257.3958435058594,-63.06718444824219,-145.0183868408203
1672829357142878700,9.238878662109375,-257.2085266113281,-62.900299072265625,-145.6147003173828
1672829357152907500,9.248907470703125,-258.25274658203125,-62.92002868652344,-145.38291931152344
1672829357162940000,9.25893994140625,-258.056884765625,-63.16871643066406,-145.06924438476562
1672829357172967700,9.2689677734375,-258.2821960449219,-63.191558837890625,-145.21739196777344
1672829357182996700,9.278996826171875,-258.0835266113281,-63.05500793457031,-145.49176025390625
1672829357193024500,9.2890244140625,-258.07720947265625,-62.647918701171875,-145.26976013183594
1672829357203053800,9.2990537109375,-258.24957275390625,-62.791473388671875,-145.08340454101562
1672829357213083000,9.309082763671874,-257.51641845703125,-62.92927551269531,-145.10377502441406
1672829357223111700,9.319111572265625,-257.3617858886719,-62.69770812988281,-145.27828979492188
1672829357233141800,9.329141845703125,-258.84637451171875,-62.82368469238281,-145.15908813476562
1672829357243170800,9.3391708984375,-258.0002136230469,-62.83570861816406,-145.46566772460938
1672829357253198600,9.349198486328126,-257.94744873046875,-63.04566955566406,-145.44052124023438
1672829357263227600,9.3592275390625,-257.65655517578125,-62.68766784667969,-145.21224975585938
1672829357273256000,9.369255859375,-257.99072265625,-62.934539794921875,-145.6117401123047
1672829357283284700,9.37928466796875,-257.60589599609375,-62.70042419433594,-145.398193359375
1672829357293314800,9.389314697265625,-258.078369140625,-62.551727294921875,-145.2666015625
1672829357303345700,9.399345703125,-258.02667236328125,-63.22868347167969,-145.233154296875
1672829357313375700,9.409375732421875,-258.90863037109375,-62.820953369140625,-145.0594024658203
1672829357323404800,9.41940478515625,-257.7222900390625,-62.665130615234375,-145.46075439453125
1672829357333435000,9.429434814453124,-258.53729248046875,-62.52586364746094,-145.14451599121094
1672829357343464700,9.439464599609375,-257.76068115234375,-63.12115478515625,-145.88783264160156
1672829357353493800,9.44949365234375,-258.589111328125,-62.87452697753906,-145.09396362304688
1672829357363523800,9.45952392578125,-257.24713134765625,-63.033111572265625,-145.35638427734375
1672829357373551600,9.469551513671876,-257.4473876953125,-62.46649169921875,-145.21702575683594
1672829357383580700,9.47958056640625,-257.86700439453125,-62.86053466796875,-145.3076934814453
1672829357393609700,9.489609619140625,-257.98736572265625,-62.72016906738281,-145.1155242919922
1672829357403639800,9.499639892578125,-257.4132080078125,-62.58241271972656,-145.5595245361328
1672829357413670700,9.509670654296874,-257.847412109375,-62.85505676269531,-145.16700744628906
1672829357423700700,9.51970068359375,-257.2945556640625,-62.806396484375,-145.40499877929688
1672829357433730800,9.529730712890625,-257.28759765625,-62.67138671875,-145.29129028320312
1672829357443760600,9.5397607421875,-257.07574462890625,-62.514892578125,-145.19886779785156
1672829357453792800,9.549792724609375,-257.5717468261719,-62.94209289550781,-145.33261108398438
1672829357463822800,9.55982275390625,-256.9472351074219,-62.91688537597656,-145.27622985839844
1672829357473852700,9.569852783203125,-257.38494873046875,-62.609466552734375,-145.0701446533203
1672829357483882800,9.5798828125,-257.41497802734375,-62.75782775878906,-144.9120330810547
1672829357493913600,9.58991357421875,-257.63140869140625,-62.758331298828125,-144.7915802001953
1672829357503942700,9.599942626953125,-257.535888671875,-62.820465087890625,-145.42318725585938
1672829357513973800,9.609973876953125,-257.4700012207031,-62.43852233886719,-145.388916015625
1672829357524003800,9.62000390625,-257.0522155761719,-62.79231262207031,-145.42318725585938
1672829357534035700,9.63003564453125,-257.4381103515625,-62.25323486328125,-145.25064086914062
1672829357544065800,9.640065673828126,-257.08197021484375,-62.87937927246094,-145.46682739257812
1672829357554094800,9.6500947265625,-257.51312255859375,-62.774932861328125,-145.39747619628906
1672829357564125000,9.660125,-257.452392578125,-62.86027526855469,-145.3437042236328
1672829357574153700,9.67015380859375,-257.6424865722656,-62.37742614746094,-144.99159240722656
1672829357584182800,9.680182861328126,-257.337646484375,-62.53312683105469,-145.36740112304688
1672829357594212900,9.690212890625,-258.23248291015625,-62.620086669921875,-145.0422821044922
1672829357604241700,9.70024169921875,-257.497802734375,-62.759857177734375,-145.0614776611328
1672829357614269700,9.710269775390625,-256.94696044921875,-62.648590087890625,-144.88961791992188
1672829357624300800,9.72030078125,-257.39422607421875,-62.69694519042969,-145.4746551513672
1672829357634332700,9.730332763671875,-257.51385498046875,-62.6331787109375,-144.92176818847656
1672829357644360700,9.740360595703125,-257.3001708984375,-62.72406005859375,-145.07029724121094
1672829357654391800,9.750391845703126,-257.4602966308594,-62.794158935546875,-144.906982421875
1672829357664422700,9.760422607421875,-257.53643798828125,-62.39430236816406,-145.15499877929688
1672829357674452700,9.77045263671875,-257.69305419921875,-62.31733703613281,-145.2173309326172
1672829357684481500,9.7804814453125,-257.79425048828125,-63.00860595703125,-145.61802673339844
1672829357694512600,9.7905126953125,-257.3603515625,-62.45953369140625,-144.91912841796875
1672829357704544800,9.800544677734376,-257.39154052734375,-62.83934020996094,-145.3726806640625
1672829357714576600,9.81057666015625,-257.4869079589844,-62.85462951660156,-145.31956481933594
1672829357724608800,9.82060888671875,-257.1131286621094,-62.89869689941406,-145.07151794433594
1672829357734638600,9.830638671875,-257.5865173339844,-63.20277404785156,-145.45396423339844
1672829357744668700,9.840668701171875,-257.3938903808594,-62.96043395996094,-145.45062255859375
1672829357754697500,9.850697509765626,-257.4315490722656,-63.12919616699219,-145.50927734375
1672829357764726500,9.8607265625,-257.1035461425781,-62.92811584472656,-145.45480346679688
1672829357774755800,9.870755859375,-257.19573974609375,-62.54205322265625,-145.24671936035156
1672829357784785700,9.88078564453125,-257.1830749511719,-63.10650634765625,-145.23216247558594
1672829357794814500,9.890814453125,-257.21893310546875,-63.07728576660156,-145.15145874023438
1672829357804844500,9.900844482421874,-257.9129638671875,-62.98406982421875,-145.20843505859375
1672829357814874600,9.91087451171875,-257.16107177734375,-63.05274963378906,-144.9651641845703
1672829357824901600,9.920901611328125,-257.4434509277344,-62.43232727050781,-145.26490783691406
1672829357834932500,9.930932373046875,-257.8741455078125,-62.908935546875,-145.47679138183594
1672829357844961500,9.94096142578125,-257.25054931640625,-62.621307373046875,-145.24757385253906
1672829357854990800,9.950990966796875,-257.5343017578125,-62.71510314941406,-145.34310913085938
1672829357865019600,9.96101953125,-258.5738525390625,-62.6904296875,-144.90786743164062
1672829357875049500,9.971049560546875,-257.59503173828125,-62.78857421875,-144.93521118164062
1672829357885078800,9.981078857421876,-257.63677978515625,-62.74336242675781,-144.80967712402344
1672829357895108600,9.991108642578125,-257.5687255859375,-62.54197692871094,-144.81825256347656
1672829357905137700,10.0011376953125,-257.5554504394531,-62.414093017578125,-145.0568084716797
1672829357915168500,10.01116845703125,-257.90838623046875,-62.56951904296875,-145.16551208496094
1672829357925198600,10.021198486328124,-257.9432373046875,-62.393096923828125,-145.35789489746094
1672829357935228700,10.031228759765625,-257.91485595703125,-62.614837646484375,-145.02333068847656
1672829357945258500,10.041258544921876,-257.06756591796875,-62.54322814941406,-145.22747802734375
1672829357955288600,10.05128857421875,-257.1824645996094,-62.41401672363281,-145.2965850830078
1672829357965317600,10.061317626953125,-258.0885925292969,-62.75019836425781,-145.2269744873047
1672829357975346700,10.0713466796875,-258.1903076171875,-62.590545654296875,-145.40245056152344
1672829357985376500,10.08137646484375,-258.054931640625,-62.905609130859375,-145.29190063476562
1672829357995404800,10.09140478515625,-257.6376647949219,-62.480072021484375,-145.28648376464844
1672829358005434600,10.1014345703125,-257.609130859375,-62.65672302246094,-145.67294311523438
1672829358015462700,10.111462646484375,-257.6470642089844,-62.56544494628906,-144.8705291748047
1672829358025492700,10.12149267578125,-257.545654296875,-62.801300048828125,-145.4880828857422
1672829358035523600,10.131523681640624,-257.76007080078125,-62.73585510253906,-144.85394287109375
1672829358045554700,10.1415546875,-257.07818603515625,-62.93145751953125,-145.32533264160156
1672829358055583700,10.151583740234376,-257.4123229980469,-62.4871826171875,-144.98046875
1672829358065610800,10.16161083984375,-257.38189697265625,-62.891021728515625,-145.36436462402344
1672829358075639800,10.171639892578124,-257.8271484375,-62.607879638671875,-144.9444580078125
1672829358085666600,10.18166650390625,-257.62115478515625,-62.70286560058594,-145.84117126464844
1672829358095693600,10.191693603515626,-257.69921875,-62.87693786621094,-145.033935546875
1672829358105721600,10.2017216796875,-257.6522216796875,-62.876861572265625,-145.01434326171875
1672829358115750700,10.211750732421875,-258.0984191894531,-62.56660461425781,-144.95469665527344
1672829358125777700,10.221777587890625,-257.825927734375,-62.96546936035156,-145.37046813964844
1672829358135804700,10.2318046875,-258.281982421875,-62.68186950683594,-145.2357940673828
1672829358145834800,10.241834716796875,-257.70294189453125,-62.469390869140625,-145.41552734375
1672829358155861500,10.251861572265625,-257.9190673828125,-62.528717041015625,-145.30868530273438
1672829358165891600,10.2618916015625,-257.90802001953125,-62.76133728027344,-145.33868408203125
1672829358175919600,10.271919677734376,-257.39947509765625,-62.72236633300781,-145.3071746826172
1672829358185948700,10.28194873046875,-257.97015380859375,-62.87043762207031,-145.3158721923828
1672829358195977700,10.291977783203125,-258.42034912109375,-62.860687255859375,-144.98953247070312
1672829358206006500,10.302006591796875,-257.855712890625,-63.16168212890625,-145.34616088867188
1672829358216034600,10.31203466796875,-257.4564208984375,-62.414337158203125,-145.28736877441406
1672829358226063600,10.322063720703126,-257.522705078125,-62.66044616699219,-144.8236083984375
1672829358236091600,10.332091552734376,-257.42193603515625,-62.60340881347656,-145.14761352539062
1672829358246120700,10.34212060546875,-256.7017822265625,-62.6015625,-144.9366912841797
1672829358256149500,10.3521494140625,-257.9704895019531,-62.009429931640625,-144.97657775878906
1672829358266178600,10.362178466796875,-258.4586486816406,-62.40550231933594,-145.04002380371094
1672829358276209700,10.372209716796876,-258.52960205078125,-62.262298583984375,-145.04306030273438
1672829358286237700,10.38223779296875,-258.79364013671875,-62.533050537109375,-145.284912109375
1672829358296267800,10.392267822265625,-257.3844909667969,-62.90281677246094,-145.28045654296875
1672829358306297600,10.402297607421875,-257.74212646484375,-62.810882568359375,-144.86688232421875
1672829358316325600,10.41232568359375,-257.7232666015625,-62.65411376953125,-145.290283203125
1672829358326355700,10.422355712890624,-257.4254150390625,-63.08250427246094,-145.38543701171875
1672829358336383500,10.432383544921874,-257.2774963378906,-63.07786560058594,-145.28131103515625
1672829358346413600,10.44241357421875,-257.37359619140625,-63.12208557128906,-145.08328247070312
1672829358356444700,10.452444580078126,-257.3641357421875,-62.608734130859375,-145.0387725830078
1672829358366473700,10.4624736328125,-257.1470031738281,-62.60719299316406,-145.01551818847656
1672829358376502800,10.472502685546875,-257.1138916015625,-62.79473876953125,-145.28770446777344
1672829358386531600,10.482531494140625,-257.24163818359375,-62.99162292480469,-144.83859252929688
1672829358396558600,10.49255859375,-256.8335266113281,-62.4376220703125,-144.97132873535156
1672829358406586600,10.502586669921875,-257.19207763671875,-62.6651611328125,-145.05577087402344
1672829358416615700,10.51261572265625,-256.6123046875,-62.77268981933594,-145.4198455810547
1672829358426644500,10.52264453125,-256.51068115234375,-63.201995849609375,-145.73521423339844
1672829358436672800,10.5326728515625,-256.7358093261719,-62.85713195800781,-145.79502868652344
1672829358446700500,10.542700439453125,-256.51800537109375,-63.01368713378906,-145.8376922607422
1672829358456729600,10.5527294921875,-256.41522216796875,-62.771240234375,-145.88613891601562
1672829358466757600,10.562757568359375,-256.592529296875,-63.1676025390625,-146.14414978027344
1672829358476786700,10.57278662109375,-256.1898193359375,-62.54985046386719,-145.6488037109375
1672829358486814700,10.582814697265626,-256.23602294921875,-63.0574951171875,-145.67112731933594
1672829358496842500,10.592842529296876,-256.2889404296875,-62.70576477050781,-145.5975799560547
1672829358506871800,10.602871826171874,-256.0316162109375,-63.10017395019531,-145.9476776123047
1672829358516898600,10.612898681640624,-256.8998107910156,-63.08001708984375,-145.79652404785156
1672829358526927600,10.622927734375,-256.63690185546875,-63.27046203613281,-146.13340759277344
1672829358536955600,10.63295556640625,-256.1041259765625,-62.727020263671875,-145.81192016601562
1672829358546983700,10.642983642578125,-256.6488037109375,-63.05802917480469,-145.84567260742188
1672829358557010700,10.6530107421875,-256.30511474609375,-62.585113525390625,-146.246826171875
1672829358567037700,10.66303759765625,-256.670166015625,-63.17054748535156,-146.0126495361328
1672829358577064700,10.673064697265625,-256.4632873535156,-62.75004577636719,-145.94012451171875
1672829358587094500,10.683094482421875,-256.55712890625,-62.908843994140625,-145.86207580566406
1672829358597121800,10.693121826171875,-256.50360107421875,-63.0372314453125,-146.25868225097656
1672829358607150600,10.703150634765626,-256.17303466796875,-62.795013427734375,-146.08421325683594
1672829358617179600,10.7131796875,-257.00872802734375,-62.426116943359375,-146.0145263671875
1672829358627207700,10.723207763671875,-256.232177734375,-62.99519348144531,-145.99984741210938
1672829358637236500,10.733236572265625,-256.2734375,-63.10453796386719,-145.91319274902344
1672829358647264800,10.7432646484375,-256.68695068359375,-62.83851623535156,-146.25851440429688
1672829358657294800,10.753294921875,-255.86378479003906,-62.54335021972656,-146.21205139160156
1672829358667322600,10.763322509765626,-257.520263671875,-62.78973388671875,-146.21511840820312
1672829358677349600,10.773349609375,-256.15350341796875,-62.88902282714844,-146.22665405273438
1672829358687377700,10.783377685546874,-256.5537109375,-63.2091064453125,-146.32772827148438
1672829358697404700,10.79340478515625,-256.11651611328125,-62.63786315917969,-146.27120971679688
1672829358707433700,10.803433837890625,-256.6074523925781,-62.69999694824219,-146.26434326171875
1672829358717462500,10.813462646484375,-256.50958251953125,-63.101959228515625,-146.27944946289062
1672829358727489800,10.82348974609375,-256.2799377441406,-62.965911865234375,-146.06805419921875
1672829358737518600,10.8335185546875,-256.23272705078125,-62.69163513183594,-146.01280212402344
1672829358747548200,10.843548095703126,-256.7119140625,-63.12260437011719,-146.2340850830078
1672829358757577200,10.8535771484375,-256.75225830078125,-62.968231201171875,-146.46170043945312
1672829358767605000,10.86360498046875,-256.9310302734375,-63.18928527832031,-146.18002319335938
1672829358777634000,10.873634033203125,-255.76853942871094,-63.04536437988281,-146.02032470703125
1672829358787664100,10.8836640625,-256.4169921875,-63.0771484375,-145.97067260742188
1672829358797692200,10.893692138671875,-256.6142578125,-63.070953369140625,-146.22811889648438
1672829358807720200,10.90372021484375,-256.2537841796875,-62.99969482421875,-145.96742248535156
1672829358817748000,10.913748046875,-255.97760009765625,-63.300872802734375,-146.35800170898438
1672829358827776300,10.9237763671875,-255.6782684326172,-62.97784423828125,-146.00283813476562
1672829358837803000,10.933802978515626,-255.8267059326172,-62.92607116699219,-146.1209716796875
1672829358847831300,10.943831298828124,-256.2362976074219,-63.12489318847656,-146.07008361816406
1672829358857858300,10.9538583984375,-255.956298828125,-63.11830139160156,-145.87353515625
1672829358867887400,10.963887451171875,-255.9828643798828,-63.24992370605469,-146.1892547607422
1672829358877916200,10.973916259765625,-255.35952758789062,-63.11451721191406,-146.6144561767578
1672829358887947000,10.983947021484376,-256.36248779296875,-63.21533203125,-146.02833557128906
1672829358897978000,10.99397802734375,-256.15765380859375,-63.09184265136719,-146.2003173828125
1672829358908007200,11.004007080078125,-255.6680145263672,-62.69804382324219,-145.64805603027344
1672829358918036200,11.0140361328125,-255.5523681640625,-63.198455810546875,-145.6898956298828
1672829358928066300,11.02406640625,-255.77297973632812,-63.50102233886719,-145.86256408691406
1672829358938096000,11.03409619140625,-255.60499572753906,-63.05690002441406,-146.05076599121094
1672829358948127000,11.044126953125,-255.781982421875,-63.2476806640625,-145.4700164794922
1672829358958157000,11.054156982421874,-255.4960479736328,-63.093048095703125,-146.20591735839844
1672829358968188200,11.064188232421875,-255.7327423095703,-63.06550598144531,-145.64891052246094
1672829358978218000,11.074218017578126,-255.12779235839844,-63.02900695800781,-145.6230010986328
1672829358988250400,11.08425048828125,-255.30917358398438,-63.20045471191406,-145.44989013671875
1672829358998281200,11.09428125,-255.24557495117188,-62.88037109375,-145.89141845703125
1672829359008312300,11.104312255859375,-255.5291290283203,-63.51524353027344,-145.8102569580078
1672829359018341000,11.114341064453125,-255.100830078125,-63.082672119140625,-145.5084991455078
1672829359028371200,11.12437109375,-255.75848388671875,-63.42167663574219,-145.7831268310547
1672829359038401000,11.134401123046874,-255.57997131347656,-63.0703125,-145.84840393066406
1672829359048432000,11.14443212890625,-255.3373565673828,-63.20783996582031,-145.7003173828125
1672829359058461200,11.154461181640626,-254.77903747558594,-63.08026123046875,-145.57089233398438
1672829359068490000,11.164489990234374,-255.62881469726562,-63.2554931640625,-145.80581665039062
1672829359078518300,11.174518310546874,-255.13027954101562,-63.141815185546875,-145.64364624023438
1672829359088549000,11.184549072265625,-255.29534912109375,-63.39387512207031,-145.71658325195312
1672829359098578200,11.194578125,-255.52281188964844,-63.21141052246094,-145.72303771972656
1672829359108607000,11.20460693359375,-255.5277099609375,-63.61943054199219,-145.84039306640625
1672829359118637000,11.214636962890625,-255.5782012939453,-63.26194763183594,-145.85328674316406
1672829359128667100,11.224667236328125,-256.07928466796875,-63.44480895996094,-145.63291931152344
1672829359138696200,11.2346962890625,-256.0090637207031,-63.507049560546875,-145.41651916503906
1672829359148728000,11.24472802734375,-255.7710418701172,-63.80780029296875,-145.2981414794922
1672829359158761000,11.254760986328124,-255.98275756835938,-63.6182861328125,-145.727783203125
1672829359168790000,11.2647900390625,-255.68743896484375,-64.07173156738281,-145.7366180419922
1672829359178821000,11.274821044921875,-255.24354553222656,-63.51983642578125,-145.66226196289062
1672829359188852000,11.28485205078125,-255.5146484375,-64.04350280761719,-145.7937774658203
1672829359198881000,11.294881103515625,-255.47683715820312,-64.08876037597656,-145.81422424316406
1672829359208912100,11.304912109375,-255.49534606933594,-64.03157043457031,-145.6292724609375
1672829359218944000,11.314944091796875,-255.39138793945312,-63.809173583984375,-145.43450927734375
1672829359228976000,11.32497607421875,-255.45535278320312,-64.28125,-145.6199188232422
1672829359239008300,11.33500830078125,-254.72254943847656,-64.06663513183594,-145.68905639648438
1672829359249040100,11.3450400390625,-254.88339233398438,-64.36444091796875,-145.50540161132812
1672829359259071200,11.3550712890625,-254.91311645507812,-64.30845642089844,-145.44625854492188
1672829359269101000,11.36510107421875,-254.8373565673828,-64.55531311035156,-145.25230407714844
1672829359279132200,11.375132080078124,-254.99380493164062,-64.33724975585938,-145.2767791748047
1672829359289161200,11.3851611328125,-254.90164184570312,-64.50997924804688,-145.26963806152344
1672829359299191300,11.39519140625,-255.3104705810547,-64.62586975097656,-144.76454162597656
1672829359309220000,11.40522021484375,-255.15841674804688,-64.72431945800781,-145.14935302734375
1672829359319248100,11.415248046875,-255.4617462158203,-64.89256286621094,-145.1392364501953
1672829359329279200,11.425279296875,-255.51210021972656,-64.96185302734375,-145.15577697753906
1672829359339309300,11.435309326171875,-255.300048828125,-64.75888061523438,-145.54563903808594
1672829359349339100,11.445339111328124,-255.30224609375,-65.35049438476562,-145.32041931152344
1672829359359371300,11.455371337890625,-253.9141082763672,-65.46994018554688,-145.79530334472656
1672829359369400000,11.465400146484376,-254.7792205810547,-66.15884399414062,-145.74072265625
1672829359379431200,11.47543115234375,-254.46827697753906,-66.45597839355469,-145.32440185546875
1672829359389461000,11.4854609375,-254.3417205810547,-66.66262817382812,-145.45025634765625
1672829359399491000,11.495490966796876,-254.7418212890625,-67.044677734375,-145.30682373046875
1672829359409522200,11.505522216796875,-254.07907104492188,-67.61746215820312,-145.44955444335938
1672829359419553000,11.515552978515625,-253.3517303466797,-67.50672912597656,-145.00950622558594
1672829359429584100,11.525584228515624,-254.08270263671875,-68.07125854492188,-145.1265411376953
1672829359439614000,11.535614013671875,-253.45384216308594,-68.91793823242188,-145.14442443847656
1672829359449645000,11.54564501953125,-253.17532348632812,-69.25259399414062,-145.15850830078125
1672829359459675100,11.555675048828125,-252.8093719482422,-69.76797485351562,-144.8517608642578
1672829359469706000,11.5657060546875,-252.87457275390625,-70.112060546875,-145.16883850097656
1672829359479735000,11.575735107421876,-252.44384765625,-70.8134765625,-144.85638427734375
1672829359489764000,11.58576416015625,-252.47052001953125,-71.65013122558594,-144.86387634277344
1672829359499793200,11.595793212890625,-252.11355590820312,-72.47964477539062,-144.85369873046875
1672829359509821200,11.6058212890625,-251.760986328125,-72.98529052734375,-144.57742309570312
1672829359519849000,11.615848876953125,-251.14324951171875,-73.79791259765625,-144.61158752441406
1672829359529880000,11.625880126953126,-251.78326416015625,-74.49539184570312,-144.56480407714844
1672829359539910100,11.63591015625,-250.4981231689453,-75.04679870605469,-144.8062744140625
1672829359549940200,11.645940185546875,-250.57110595703125,-76.23426818847656,-144.5021514892578
1672829359559969300,11.65596923828125,-250.0749053955078,-76.93402099609375,-144.52833557128906
1672829359569998000,11.665998046875,-250.42239379882812,-77.86906433105469,-144.32183837890625
1672829359580027100,11.676027099609374,-249.8976287841797,-78.39024353027344,-144.109375
1672829359590058000,11.68605810546875,-249.9083709716797,-78.85771179199219,-144.26173400878906
1672829359600088000,11.696088134765626,-249.63375854492188,-79.96749877929688,-144.0083770751953
1672829359610118100,11.7061181640625,-249.07896423339844,-80.44180297851562,-144.06488037109375
1672829359620148200,11.716148193359375,-249.1595916748047,-81.90760803222656,-143.91168212890625
1672829359630180000,11.72618017578125,-249.70172119140625,-82.14588928222656,-143.6432647705078
1672829359640210200,11.736210205078125,-249.3698272705078,-82.75436401367188,-143.99925231933594
1672829359650240300,11.746240234375,-249.6239776611328,-83.24496459960938,-143.88954162597656
1672829359660269300,11.756269287109374,-248.75625610351562,-83.96611022949219,-143.9604034423828
1672829359670298000,11.766298095703124,-249.1427459716797,-84.547607421875,-143.57154846191406
1672829359680330000,11.776330078125,-249.43893432617188,-85.57148742675781,-144.0414276123047
1672829359690362000,11.786362060546875,-249.307373046875,-85.92509460449219,-143.2596893310547
1672829359700394200,11.796394287109376,-248.91146850585938,-86.75801086425781,-143.6900177001953
1672829359710424000,11.806424072265624,-249.31491088867188,-87.23480224609375,-143.58290100097656
1672829359720453000,11.816453125,-248.9925994873047,-88.06037902832031,-143.3256072998047
1672829359730482200,11.826482177734375,-249.73443603515625,-88.49842834472656,-143.91148376464844
1672829359740512300,11.83651220703125,-249.0995635986328,-89.32942199707031,-143.43942260742188
1672829359750542300,11.846542236328125,-249.085205078125,-90.14639282226562,-143.445068359375
1672829359760571100,11.856571044921875,-249.37600708007812,-90.62811279296875,-143.5879669189453
1672829359770599400,11.866599365234375,-249.29498291015625,-91.13990783691406,-143.34445190429688
1672829359780628500,11.87662841796875,-249.42149353027344,-91.66119384765625,-143.16526794433594
1672829359790658300,11.886658203125,-249.5516357421875,-92.51953125,-143.08139038085938
1672829359800688400,11.8966884765625,-249.5291290283203,-93.1005859375,-143.1232147216797
1672829359810716400,11.90671630859375,-249.25343322753906,-93.3250732421875,-142.91580200195312
1672829359820744200,11.916744140625,-248.80886840820312,-94.32516479492188,-143.2544403076172
1672829359830772500,11.9267724609375,-249.42218017578125,-94.54232788085938,-143.17138671875
1672829359840800300,11.93680029296875,-249.25559997558594,-95.71229553222656,-143.0768585205078
1672829359850828300,11.946828369140626,-249.72402954101562,-96.00343322753906,-143.0849151611328
1672829359860857300,11.956857421875,-249.353515625,-96.58482360839844,-143.2113494873047
1672829359870884400,11.96688427734375,-249.6653594970703,-97.45315551757812,-143.04953002929688
1672829359880912400,11.976912353515624,-250.19882202148438,-98.470458984375,-142.82919311523438
1672829359890941400,11.98694140625,-250.2235107421875,-98.62435913085938,-142.6204376220703
1672829359900970500,11.996970458984375,-250.05027770996094,-99.27992248535156,-143.26722717285156
1672829359910999300,12.006999267578125,-250.89468383789062,-99.80523681640625,-142.85232543945312
1672829359921027300,12.01702734375,-250.8654327392578,-100.52790832519531,-143.10235595703125
1672829359931056400,12.027056396484374,-251.74423217773438,-101.19099426269531,-143.0702667236328
1672829359941087200,12.037087158203125,-251.572509765625,-101.89520263671875,-142.71316528320312
1672829359951118300,12.047118408203126,-251.8813934326172,-102.40261840820312,-142.71592712402344
1672829359961146400,12.057146484375,-251.54476928710938,-103.30088806152344,-143.1017303466797
1672829359971175400,12.067175537109375,-251.4898681640625,-103.32945251464844,-143.08963012695312
1672829359981204200,12.077204345703125,-252.50851440429688,-104.34957885742188,-143.06625366210938
1672829359991235300,12.0872353515625,-252.1769256591797,-104.86904907226562,-143.2187957763672
1672829360001264400,12.097264404296874,-252.35498046875,-105.525390625,-143.22410583496094
1672829360011292400,12.10729248046875,-252.80148315429688,-105.69245910644531,-142.99600219726562
1672829360021321200,12.1173212890625,-252.8152313232422,-106.4913330078125,-143.28610229492188
1672829360031350300,12.127350341796875,-252.7914276123047,-106.64665222167969,-143.11288452148438
1672829360041380400,12.13738037109375,-252.93170166015625,-107.449462890625,-143.22093200683594
1672829360051409200,12.1474091796875,-254.0598907470703,-108.04499816894531,-143.36984252929688
1672829360061438200,12.157438232421875,-253.93377685546875,-108.70161437988281,-142.90321350097656
1672829360071467500,12.167467529296875,-254.745849609375,-108.66532897949219,-143.38072204589844
1672829360081496300,12.177496337890625,-254.4477081298828,-109.29707336425781,-143.40089416503906
1672829360091527400,12.18752734375,-254.5874481201172,-109.67271423339844,-143.22286987304688
1672829360101557200,12.19755712890625,-254.66046142578125,-110.01402282714844,-143.39796447753906
1672829360111585300,12.207585205078125,-255.24867248535156,-110.51493835449219,-143.5054931640625
1672829360121614300,12.2176142578125,-255.61253356933594,-110.49482727050781,-143.29747009277344
1672829360131645400,12.2276455078125,-255.64337158203125,-110.72929382324219,-142.83731079101562
1672829360141673200,12.237673095703125,-256.0575866699219,-111.58683776855469,-143.05392456054688
1672829360151702500,12.24770263671875,-256.41876220703125,-111.76795959472656,-142.40428161621094
1672829360161731300,12.2577314453125,-257.07818603515625,-112.46389770507812,-142.80361938476562
1672829360171760400,12.267760498046876,-256.6650390625,-112.40119934082031,-142.73342895507812
1672829360181790500,12.27779052734375,-257.5474853515625,-113.33561706542969,-142.6893310546875
1672829360191820300,12.2878203125,-257.8587951660156,-113.17875671386719,-142.5201873779297
1672829360201850400,12.297850341796876,-258.3948974609375,-114.38340759277344,-142.52142333984375
1672829360211878400,12.30787841796875,-258.6155090332031,-114.60916137695312,-142.2005157470703
1672829360221906400,12.317906494140624,-258.77069091796875,-115.04251098632812,-142.43357849121094
1672829360231935200,12.327935302734375,-259.13458251953125,-115.04229736328125,-142.0259246826172
1672829360241965300,12.33796533203125,-259.2354736328125,-115.39346313476562,-142.1556396484375
1672829360251993300,12.347993408203125,-258.9093322753906,-115.68424987792969,-141.93170166015625
1672829360262023400,12.3580234375,-260.4683532714844,-116.11692810058594,-141.8897247314453
1672829360272054500,12.368054443359375,-259.43414306640625,-116.52497863769531,-141.52810668945312
1672829360282083300,12.378083251953125,-260.22802734375,-117.00920104980469,-141.486083984375
1672829360292115500,12.388115478515624,-261.012939453125,-117.35267639160156,-141.30548095703125
1672829360302144300,12.398144287109375,-260.9262390136719,-118.14593505859375,-141.8915252685547
1672829360312174300,12.40817431640625,-261.74224853515625,-118.50099182128906,-141.48284912109375
1672829360322205200,12.418205078125,-262.16070556640625,-118.25344848632812,-141.58761596679688
1672829360332233500,12.4282333984375,-262.3642883300781,-118.55035400390625,-141.50596618652344
1672829360342263600,12.438263671875,-262.8489685058594,-119.12445068359375,-141.7309112548828
1672829360352292400,12.448292236328125,-262.87408447265625,-119.42634582519531,-141.4072265625
1672829360362322400,12.458322509765624,-263.5291748046875,-120.23187255859375,-141.7831573486328
1672829360372353300,12.468353271484375,-263.706298828125,-119.7281494140625,-141.2354736328125
1672829360382382300,12.47838232421875,-263.9956359863281,-120.41001892089844,-141.6037139892578
1672829360392411100,12.4884111328125,-264.0611572265625,-120.54241943359375,-141.2561798095703
1672829360402439400,12.498439453125,-264.32122802734375,-120.62712097167969,-141.80740356445312
1672829360412468500,12.508468505859375,-265.16259765625,-120.62071228027344,-141.20335388183594
1672829360422496300,12.518496337890625,-265.1148986816406,-120.70712280273438,-141.6193084716797
1672829360432525300,12.528525390625,-265.64556884765625,-120.97915649414062,-141.5338897705078
1672829360442553300,12.53855322265625,-265.7530212402344,-121.54435729980469,-141.5992889404297
1672829360452581400,12.548581298828125,-266.6203308105469,-121.45567321777344,-141.66807556152344
1672829360462608400,12.5586083984375,-266.15814208984375,-121.66168212890625,-141.8350067138672
1672829360472635400,12.568635498046875,-266.0641784667969,-121.71397399902344,-141.657470703125
1672829360482664400,12.57866455078125,-266.68719482421875,-122.51324462890625,-141.5462646484375
1672829360492692200,12.588692138671876,-266.76617431640625,-121.72412109375,-141.21435546875
1672829360502721300,12.59872119140625,-266.83856201171875,-122.12074279785156,-141.57289123535156
1672829360512750300,12.608750244140625,-266.4915466308594,-122.27290344238281,-141.37965393066406
1672829360522779400,12.618779296875,-267.31268310546875,-122.52647399902344,-141.5530242919922
1672829360532808200,12.62880810546875,-268.1313171386719,-122.83871459960938,-141.76622009277344
1672829360542841300,12.63884130859375,-268.1026611328125,-122.87779235839844,-141.6927032470703
1672829360552864300,12.6488642578125,-268.0015869140625,-122.5091552734375,-141.30137634277344
1672829360562893300,12.658893310546874,-268.2330322265625,-122.78453063964844,-141.65664672851562
1672829360572921300,12.66892138671875,-268.0149230957031,-122.92845153808594,-141.10638427734375
1672829360582947300,12.678947265625,-268.5423583984375,-123.61044311523438,-141.37744140625
1672829360592976400,12.688976318359375,-268.3760986328125,-122.95755004882812,-141.1800079345703
1672829360603005400,12.69900537109375,-268.701416015625,-123.68943786621094,-141.55477905273438
1672829360613033200,12.709033203125,-268.59991455078125,-123.21244812011719,-141.54566955566406
1672829360623063300,12.719063232421876,-268.4223937988281,-123.22895812988281,-141.8070068359375
