time,seconds_elapsed,z,y,x
1672829354996116200,9.0941162109375,9.83970832824707,-0.03229152783751488,-0.05500005558133125
1672829355006062300,9.104062255859375,9.83970832824707,-0.022709615528583527,-0.08853675425052643
1672829355016008200,9.11400830078125,9.825335502624512,-0.008336743339896202,-0.09811866283416748
1672829355025954300,9.123954345703124,9.810962677001953,-0.008336743339896202,-0.09811866283416748
1672829355035900200,9.133900146484375,9.83970832824707,-0.017918657511472702,-0.08853675425052643
1672829355045846300,9.14384619140625,9.83970832824707,-0.022709615528583527,-0.0837457925081253
1672829355055792000,9.153792236328124,9.796589851379395,-0.02750057354569435,-0.08853675425052643
1672829355065738200,9.16373828125,9.854081153869629,-0.02750057354569435,-0.07416388392448425
1672829355075684000,9.17368408203125,9.810962677001953,-0.017918657511472702,-0.0837457925081253
1672829355085630200,9.183630126953124,9.810962677001953,-0.008336743339896202,-0.08853675425052643
1672829355095576000,9.193576171875,9.83970832824707,-0.017918657511472702,-0.09332771599292755
1672829355105522200,9.203522216796875,9.820544242858887,-0.022709615528583527,-0.08853675425052643
1672829355115468000,9.213468017578125,9.834917068481445,-0.013127699494361877,-0.07895484566688538
1672829355125414100,9.2234140625,9.815753936767578,-0.017918657511472702,-0.0837457925081253
1672829355135360000,9.233360107421875,9.83970832824707,-0.03229152783751488,-0.06937292218208313
1672829355145306000,9.24330615234375,9.83970832824707,-0.022709615528583527,-0.0837457925081253
1672829355155252000,9.253251953125,9.834917068481445,-0.013127699494361877,-0.09811866283416748
1672829355165198000,9.263197998046875,9.830126762390137,-0.013127699494361877,-0.10770058631896973
1672829355175144000,9.27314404296875,9.825335502624512,-0.017918657511472702,-0.09811866283416748
1672829355185090000,9.283090087890624,9.820544242858887,-0.013127699494361877,-0.08853675425052643
1672829355195036200,9.2930361328125,9.815753936767578,-0.013127699494361877,-0.0837457925081253
1672829355204982000,9.30298193359375,9.782217025756836,-0.017918657511472702,-0.0454181469976902
1672829355214928100,9.31292822265625,9.863662719726562,-0.03229152783751488,-0.09811866283416748
1672829355224874000,9.3228740234375,9.83970832824707,-0.02750057354569435,-0.08853675425052643
1672829355234820000,9.332820068359375,9.796589851379395,-0.0035457871854305267,-0.09332771599292755
1672829355244766000,9.342765869140624,9.83970832824707,-0.008336743339896202,-0.09811866283416748
1672829355254712000,9.352712158203126,9.83970832824707,-0.013127699494361877,-0.10770058631896973
1672829355264658000,9.362657958984375,9.810962677001953,-0.017918657511472702,-0.09332771599292755
1672829355274604000,9.37260400390625,9.834917068481445,-0.022709615528583527,-0.08853675425052643
1672829355284550000,9.3825498046875,9.810962677001953,-0.02750057354569435,-0.0837457925081253
1672829355294496000,9.39249609375,9.834917068481445,-0.022709615528583527,-0.0837457925081253
1672829355304441900,9.40244189453125,9.815753936767578,-0.03229152783751488,-0.05500005558133125
1672829355314388000,9.412387939453126,9.825335502624512,-0.022709615528583527,-0.09332771599292755
1672829355324333800,9.422333740234375,9.844499588012695,-0.008336743339896202,-0.1029096245765686
1672829355334280000,9.432280029296875,9.830126762390137,-0.008336743339896202,-0.10770058631896973
1672829355344225800,9.442225830078126,9.83970832824707,-0.013127699494361877,-0.11249153316020966
1672829355354172000,9.452171875,9.820544242858887,-0.02750057354569435,-0.09811866283416748
1672829355364117800,9.46211767578125,9.820544242858887,-0.02750057354569435,-0.07895484566688538
1672829355374063900,9.47206396484375,9.810962677001953,-0.022709615528583527,-0.0645819753408432
1672829355384009700,9.482009765625,9.815753936767578,-0.022709615528583527,-0.05500005558133125
1672829355393955800,9.491955810546875,9.834917068481445,-0.02750057354569435,0.002491425722837448
1672829355403901700,9.501901611328124,9.810962677001953,-0.03229152783751488,-0.04062718525528908
1672829355413847800,9.511847900390626,9.911572456359863,-0.3437037467956543,1.3391684293746948
1672829355423794000,9.5217939453125,9.782217025756836,-0.4634776711463928,1.7032811641693115
1672829355433739800,9.53173974609375,9.820544242858887,-0.3053760826587677,0.6923892498016357
1672829355443686000,9.541685791015626,9.83970832824707,-0.094573974609375,0.17496588826179504
1672829355453631700,9.5516318359375,9.810962677001953,0.029990913346409798,-0.24663832783699036
1672829355463577900,9.561577880859375,9.810962677001953,0.08269144594669342,-0.36162132024765015
1672829355473523700,9.571523681640626,9.782217025756836,0.04436378553509712,-0.13165536522865295
1672829355483469800,9.5814697265625,9.935527801513672,-0.041873443871736526,-0.16998302936553955
1672829355493415700,9.591415771484375,9.772634506225586,-0.12331971526145935,0.17496588826179504
1672829355503361800,9.60136181640625,9.820544242858887,-0.06103726848959923,-0.09332771599292755
1672829355513307600,9.6113076171875,9.806171417236328,-0.15685640275478363,0.6732254028320312
1672829355523253800,9.621253662109375,9.858872413635254,-0.18560215830802917,0.09351961314678192
1672829355533199600,9.63119970703125,9.83970832824707,-0.1903931051492691,0.021655255928635597
1672829355543145700,9.641145751953125,9.830126762390137,-0.16164736449718475,-0.07416388392448425
1672829355553091600,9.651091552734375,9.834917068481445,-0.14727449417114258,-0.0837457925081253
1672829355563037700,9.66103759765625,9.782217025756836,-0.29579418897628784,0.30911269783973694
1672829355572983600,9.670983642578125,9.863662719726562,-0.41556811332702637,0.6684344410896301
1672829355582929700,9.6809296875,9.743888854980469,-0.5161781907081604,1.0085923671722412
1672829355592875500,9.69087548828125,9.969063758850098,-0.4586867094039917,0.8936094045639038
1672829355602821600,9.700821533203126,9.719934463500977,-0.43473193049430847,0.7402988076210022
1672829355612767500,9.710767578125,9.911572456359863,-0.35328567028045654,0.5007509589195251
1672829355622713600,9.720713623046874,9.806171417236328,-0.35807663202285767,0.40493181347846985
1672829355632659500,9.730659423828126,9.806171417236328,-0.4586867094039917,0.663643479347229
1672829355642605600,9.74060546875,9.80138111114502,-0.5209691524505615,0.6732254028320312
1672829355652551700,9.7505517578125,9.830126762390137,-0.6024154424667358,0.6875982880592346
1672829355662497500,9.76049755859375,9.863662719726562,-0.6886526346206665,0.8600727319717407
1672829355672443600,9.770443603515625,9.796589851379395,-0.875499963760376,1.1235753297805786
1672829355682389500,9.780389404296875,9.911572456359863,-1.0096467733383179,1.147530198097229
1672829355692335600,9.790335693359374,9.825335502624512,-1.043183445930481,1.1283663511276245
1672829355702281500,9.800281494140625,9.705561637878418,-0.947364330291748,0.7738354802131653
1672829355712227600,9.8102275390625,9.897199630737305,-0.6934435963630676,-0.002299528568983078
1672829355722173400,9.82017333984375,9.849289894104004,-0.41556811332702637,-0.5101410150527954
1672829355732119600,9.83011962890625,9.743888854980469,-0.3628675937652588,-0.6921973824501038
1672829355742065400,9.8400654296875,9.854081153869629,-0.607206404209137,-0.11249153316020966
1672829355752011500,9.850011474609374,9.767844200134277,-0.6982345581054688,0.016864299774169922
1672829355761957400,9.859957275390625,9.911572456359863,-0.7700989246368408,0.11747439205646515
1672829355771903500,9.869903564453125,9.873245239257812,-0.7653079628944397,0.07914674282073975
1672829355781849300,9.879849365234374,9.83970832824707,-0.7173984050750732,-0.20831069350242615
1672829355791795500,9.88979541015625,9.748680114746094,-0.6119973659515381,-0.4813952147960663
1672829355801741300,9.8997412109375,9.921154975891113,-0.5497149229049683,-0.4047399163246155
1672829355811687400,9.9096875,9.69118881225586,-0.5928335189819336,-0.16998302936553955
1672829355821633300,9.91963330078125,9.945109367370605,-0.6742798089981079,-0.011881444603204727
1672829355831579400,9.929579345703125,9.80138111114502,-0.8180084824562073,0.17017492651939392
1672829355841525200,9.939525146484375,9.878035545349121,-0.7509350776672363,0.2037116289138794
1672829355851471400,9.949471435546876,9.772634506225586,-0.46826863288879395,-0.14602823555469513
1672829355861417500,9.95941748046875,9.858872413635254,-0.24309362471103668,-0.4095308780670166
1672829355871363600,9.969363525390625,9.815753936767578,-0.04666439816355705,-0.6586606502532959
1672829355881309700,9.979309814453124,9.753471374511719,-0.022709615528583527,-0.6155420541763306
1672829355891255800,9.989255859375,9.820544242858887,-0.12811066210269928,-0.4861861765384674
1672829355901202200,9.9992021484375,9.844499588012695,-0.19997502863407135,-0.5436776876449585
1672829355911148500,10.0091484375,9.834917068481445,-0.31495800614356995,-0.37599417567253113
1672829355921094100,10.01909423828125,9.810962677001953,-0.5209691524505615,0.04561004042625427
1672829355931039700,10.029039794921875,9.806171417236328,-0.6407430768013,0.3139036297798157
1672829355940985600,10.038985595703124,9.854081153869629,-0.6215792894363403,0.37139514088630676
1672829355950931500,10.048931396484376,9.825335502624512,-0.4586867094039917,-0.021463360637426376
1672829355960877300,10.058877197265625,9.80138111114502,-0.2814213037490845,-0.5245139002799988
1672829355970823200,10.0688232421875,9.787008285522461,-0.23351173102855682,-0.6682425737380981
1672829355980769300,10.078769287109376,9.921154975891113,-0.2526755630970001,-0.5580505728721619
1672829355990715400,10.08871533203125,9.6768159866333,-0.2095569372177124,-0.7257340550422668
1672829356000661500,10.09866162109375,9.854081153869629,-0.16164736449718475,-0.9509090185165405
1672829356010609400,10.108609375,9.834917068481445,-0.2095569372177124,-0.730525016784668
1672829356020561400,10.1185615234375,9.873245239257812,-0.386822372674942,-0.2610112130641937
1672829356030518500,10.1285185546875,9.815753936767578,-0.49222344160079956,0.32827651500701904
1672829356040482600,10.138482666015625,9.830126762390137,-0.5497149229049683,0.4672142565250397
1672829356050454000,10.1484541015625,9.825335502624512,-0.4634776711463928,0.10310152173042297
1672829356060430800,10.158430908203124,9.782217025756836,-0.23830269277095795,-0.5915873050689697
1672829356070284000,10.168283935546874,9.863662719726562,-0.0562463141977787,-1.2239936590194702
1672829356080151000,10.178151123046876,9.806171417236328,-0.06103726848959923,-1.3150217533111572
1672829356090024400,10.1880244140625,9.772634506225586,-0.2287207692861557,-0.8550899028778076
1672829356099906800,10.19790673828125,9.916363716125488,-0.401195228099823,-0.04062718525528908
1672829356109800400,10.207800537109375,9.748680114746094,-0.568878710269928,0.5055419206619263
1672829356119706600,10.21770654296875,9.854081153869629,-0.5497149229049683,0.7402988076210022
1672829356129627000,10.227626953125,9.80138111114502,-0.41077715158462524,0.39534991979599
1672829356139561200,10.237561279296875,9.878035545349121,-0.37244948744773865,0.1653839647769928
1672829356149510000,10.247510009765625,9.777425765991211,-0.31495800614356995,-0.08853675425052643
1672829356159472000,10.25747216796875,9.935527801513672,-0.3101670444011688,-0.23226547241210938
1672829356169446700,10.26744677734375,9.758261680603027,-0.31495800614356995,-0.217892587184906
1672829356179432000,10.277431884765624,9.863662719726562,-0.2287207692861557,-0.34245747327804565
1672829356189426000,10.287426025390625,9.830126762390137,-0.2287207692861557,-0.2945479154586792
1672829356199426300,10.29742626953125,9.777425765991211,-0.27663034200668335,-0.0454181469976902
1672829356209430800,10.3074306640625,9.892409324645996,-0.19997502863407135,0.031237170100212097
1672829356219436800,10.317436767578124,9.825335502624512,-0.15685640275478363,-0.05500005558133125
1672829356229419800,10.327419677734374,9.787008285522461,-0.25746652483940125,0.19412972033023834
1672829356239366000,10.337365966796876,9.849289894104004,-0.35328567028045654,0.5199148058891296
1672829356249311700,10.347311767578125,9.806171417236328,-0.2910032272338867,0.23724833130836487
1672829356259257900,10.3572578125,9.854081153869629,-0.2862122654914856,-0.33766651153564453
1672829356269203700,10.36720361328125,9.878035545349121,-0.3389127850532532,-0.32329365611076355
1672829356279149800,10.37714990234375,9.763052940368652,-0.3101670444011688,-0.2514292895793915
1672829356289095700,10.387095703125,9.892409324645996,-0.12331971526145935,-0.39515799283981323
1672829356299041800,10.397041748046876,9.772634506225586,0.025199957191944122,-0.7975984215736389
1672829356308987600,10.406987548828125,9.787008285522461,-0.022709615528583527,-0.663451611995697
1672829356318933800,10.416933837890625,9.854081153869629,-0.18560215830802917,-0.15561015903949738
1672829356328879600,10.426879638671876,9.796589851379395,-0.2526755630970001,0.040819086134433746
1672829356338825700,10.43682568359375,9.90199089050293,-0.2670484483242035,0.06477387249469757
1672829356348771600,10.446771484375,9.758261680603027,-0.2526755630970001,-0.20351973176002502
1672829356358717700,10.4567177734375,9.782217025756836,-0.14727449417114258,-0.4286946952342987
1672829356368663600,10.46666357421875,9.830126762390137,-0.017918657511472702,-0.970072865486145
1672829356378609700,10.476609619140625,9.825335502624512,0.06831857562065125,-1.0131914615631104
1672829356388555500,10.486555419921874,9.782217025756836,0.20246537029743195,-0.9748638868331909
1672829356398501600,10.496501708984376,10.045719146728516,0.39410364627838135,-0.9892367124557495
1672829356408447500,10.506447509765625,9.638487815856934,0.46596798300743103,-1.6120611429214478
1672829356418393600,10.5163935546875,9.882826805114746,0.2503749430179596,-0.6347059011459351
1672829356428339700,10.526339599609376,9.79179859161377,0.11143718659877777,-0.8502989411354065
1672829356438285600,10.53628564453125,9.782217025756836,-0.0754101425409317,-0.7544798254966736
1672829356448231700,10.546231689453125,9.882826805114746,-0.12331971526145935,-0.9317452311515808
1672829356458177500,10.556177490234376,9.782217025756836,-0.08499205112457275,-0.8982085585594177
1672829356468123600,10.56612353515625,9.834917068481445,-0.08499205112457275,-0.730525016784668
1672829356478069500,10.576069580078125,9.806171417236328,-0.10415588319301605,-0.5772144198417664
1672829356488015600,10.586015625,9.849289894104004,-0.094573974609375,-0.562841534614563
1672829356497961500,10.59596142578125,9.820544242858887,-0.02750057354569435,-0.562841534614563
1672829356507907600,10.605907470703125,9.796589851379395,-0.013127699494361877,-0.7544798254966736
1672829356517853400,10.615853515625,9.882826805114746,-0.09936492145061493,-0.9652819633483887
1672829356527799600,10.625799560546875,9.767844200134277,-0.3053760826587677,-0.8790447115898132
1672829356537745400,10.635745361328125,9.834917068481445,-0.47305959463119507,-0.41911280155181885
1672829356547691500,10.64569140625,9.849289894104004,-0.4203590750694275,0.13184726238250732
1672829356557637400,10.655637451171875,9.782217025756836,-0.1520654559135437,0.10310152173042297
1672829356567583500,10.66558349609375,9.83970832824707,-0.14727449417114258,0.06477387249469757
1672829356577529300,10.675529296875,9.849289894104004,-0.08020110428333282,0.05998291075229645
1672829356587475500,10.685475341796876,9.79179859161377,-0.03229152783751488,0.06477387249469757
1672829356597421300,10.69542138671875,9.810962677001953,-0.03229152783751488,0.05998291075229645
1672829356607367400,10.705367431640624,9.825335502624512,-0.06582823395729065,0.04561004042625427
1672829356617313300,10.715313232421876,9.806171417236328,-0.12811066210269928,0.0504009984433651
1672829356627259400,10.72525927734375,9.844499588012695,-0.171229287981987,0.040819086134433746
1672829356637205200,10.735205322265625,9.830126762390137,-0.171229287981987,0.04561004042625427
1672829356647151400,10.7451513671875,9.796589851379395,-0.12331971526145935,0.0504009984433651
1672829356657097200,10.75509716796875,9.815753936767578,-0.07061918079853058,0.0695648267865181
1672829356667043300,10.765043212890625,9.916363716125488,-0.022709615528583527,0.002491425722837448
1672829356676989400,10.774989501953126,9.787008285522461,-0.041873443871736526,0.0887286514043808
1672829356686935300,10.784935302734375,9.806171417236328,-0.08499205112457275,0.05519195646047592
1672829356696881400,10.79488134765625,9.882826805114746,-0.12811066210269928,0.040819086134433746
1672829356706827300,10.8048271484375,9.858872413635254,-0.14248353242874146,0.016864299774169922
1672829356716773400,10.8147734375,9.772634506225586,-0.13769258558750153,0.03602812811732292
1672829356726719200,10.82471923828125,9.911572456359863,-0.10415588319301605,0.0504009984433651
1672829356736665300,10.834665283203124,9.672024726867676,-0.02750057354569435,0.05998291075229645
1672829356746611200,10.844611083984375,9.94031810760498,-0.04666439816355705,0.04561004042625427
1672829356756557300,10.854557373046875,9.748680114746094,-0.06582823395729065,0.05519195646047592
1672829356766503200,10.864503173828124,9.844499588012695,-0.10415588319301605,0.031237170100212097
1672829356776449300,10.87444921875,9.815753936767578,-0.14727449417114258,0.040819086134433746
1672829356786395100,10.88439501953125,9.83970832824707,-0.14727449417114258,0.031237170100212097
1672829356796341200,10.89434130859375,9.820544242858887,-0.11852875351905823,0.040819086134433746
1672829356806287000,10.904287109375,9.830126762390137,-0.0754101425409317,0.03602812811732292
1672829356816233200,10.914233154296875,9.830126762390137,-0.041873443871736526,0.05519195646047592
1672829356826179000,10.924178955078125,9.820544242858887,-0.0370824858546257,0.06477387249469757
1672829356836125200,10.934125244140626,9.815753936767578,-0.0754101425409317,0.0504009984433651
1672829356846071000,10.944071044921875,9.834917068481445,-0.11852875351905823,0.03602812811732292
1672829356856017200,10.95401708984375,9.820544242858887,-0.15685640275478363,0.031237170100212097
1672829356865963000,10.963962890625,9.820544242858887,-0.15685640275478363,0.040819086134433746
1672829356875909000,10.9739091796875,9.825335502624512,-0.12811066210269928,0.04561004042625427
1672829356885855200,10.983855224609375,9.820544242858887,-0.08020110428333282,0.040819086134433746
1672829356895801000,10.993801025390624,9.820544242858887,-0.0370824858546257,0.0504009984433651
1672829356905747200,11.003747314453125,9.830126762390137,-0.0370824858546257,0.06477387249469757
1672829356915693000,11.013693115234375,9.830126762390137,-0.0754101425409317,0.05519195646047592
1672829356925639200,11.02363916015625,9.815753936767578,-0.12811066210269928,0.03602812811732292
1672829356935585000,11.0335849609375,9.830126762390137,-0.14248353242874146,0.031237170100212097
1672829356945531100,11.04353125,9.830126762390137,-0.13769258558750153,0.03602812811732292
1672829356955477000,11.05347705078125,9.830126762390137,-0.10415588319301605,0.04561004042625427
1672829356965423000,11.063423095703126,9.825335502624512,-0.08020110428333282,0.05519195646047592
1672829356975369000,11.073368896484375,9.815753936767578,-0.06103726848959923,0.05998291075229645
1672829356985315000,11.083315185546875,9.820544242858887,-0.06582823395729065,0.04561004042625427
1672829356995261000,11.093260986328126,9.825335502624512,-0.094573974609375,0.040819086134433746
1672829357005207000,11.10320703125,9.830126762390137,-0.11852875351905823,0.03602812811732292
1672829357015153000,11.11315283203125,9.825335502624512,-0.13769258558750153,0.03602812811732292
1672829357025099000,11.12309912109375,9.830126762390137,-0.12811066210269928,0.03602812811732292
1672829357035044900,11.133044921875,9.825335502624512,-0.09936492145061493,0.040819086134433746
1672829357044991000,11.142990966796875,9.820544242858887,-0.07061918079853058,0.05519195646047592
1672829357054936800,11.152936767578124,9.815753936767578,-0.051455359905958176,0.0504009984433651
1672829357064883000,11.162883056640625,9.830126762390137,-0.0754101425409317,0.0504009984433651
1672829357074828800,11.172828857421875,9.815753936767578,-0.10415588319301605,0.0504009984433651
1672829357084775000,11.18277490234375,9.834917068481445,-0.12331971526145935,0.03602812811732292
1672829357094720800,11.192720703125,9.825335502624512,-0.14727449417114258,0.040819086134433746
1672829357104667000,11.2026669921875,9.830126762390137,-0.11852875351905823,0.040819086134433746
1672829357114613000,11.212613037109374,9.830126762390137,-0.08020110428333282,0.0504009984433651
1672829357124558800,11.222558837890626,9.820544242858887,-0.06582823395729065,0.0504009984433651
1672829357134505000,11.2325048828125,9.834917068481445,-0.0562463141977787,0.0504009984433651
1672829357144450800,11.242450927734374,9.820544242858887,-0.0754101425409317,0.03602812811732292
1672829357154397000,11.25239697265625,9.830126762390137,-0.10894684493541718,0.031237170100212097
1672829357164342800,11.2623427734375,9.830126762390137,-0.1329016238451004,0.03602812811732292
1672829357174289000,11.272288818359375,9.820544242858887,-0.13769258558750153,0.040819086134433746
1672829357184234800,11.28223486328125,9.825335502624512,-0.1137377917766571,0.04561004042625427
1672829357194180900,11.292180908203125,9.820544242858887,-0.08978301286697388,0.05519195646047592
1672829357204126700,11.302126708984375,9.830126762390137,-0.06582823395729065,0.0504009984433651
1672829357214072800,11.31207275390625,9.820544242858887,-0.06103726848959923,0.04561004042625427
1672829357224018700,11.322018798828125,9.825335502624512,-0.08499205112457275,0.040819086134433746
1672829357233964800,11.33196484375,9.830126762390137,-0.11852875351905823,0.040819086134433746
1672829357243910700,11.34191064453125,9.820544242858887,-0.12811066210269928,0.040819086134433746
1672829357253856800,11.351856689453125,9.834917068481445,-0.11852875351905823,0.040819086134433746
1672829357263802600,11.361802734375,9.825335502624512,-0.09936492145061493,0.040819086134433746
1672829357273748700,11.371748779296874,9.825335502624512,-0.08020110428333282,0.04561004042625427
1672829357283694600,11.381694580078126,9.830126762390137,-0.06582823395729065,0.04561004042625427
1672829357293640700,11.391640625,9.820544242858887,-0.08020110428333282,0.040819086134433746
1672829357303586600,11.401586669921874,9.825335502624512,-0.10415588319301605,0.04561004042625427
1672829357313532700,11.41153271484375,9.825335502624512,-0.12811066210269928,0.040819086134433746
1672829357323478500,11.421478515625,9.830126762390137,-0.12331971526145935,0.03602812811732292
1672829357333424600,11.431424560546875,9.830126762390137,-0.1137377917766571,0.03602812811732292
1672829357343370800,11.441370849609376,9.825335502624512,-0.08978301286697388,0.040819086134433746
1672829357353316600,11.451316650390625,9.825335502624512,-0.07061918079853058,0.0504009984433651
1672829357363262700,11.4612626953125,9.820544242858887,-0.06103726848959923,0.040819086134433746
1672829357373208600,11.47120849609375,9.825335502624512,-0.08978301286697388,0.040819086134433746
1672829357383154700,11.48115478515625,9.825335502624512,-0.10894684493541718,0.03602812811732292
1672829357393100500,11.4911005859375,9.820544242858887,-0.12811066210269928,0.040819086134433746
1672829357403046700,11.501046630859374,9.825335502624512,-0.12331971526145935,0.040819086134433746
1672829357412992500,11.510992431640625,9.820544242858887,-0.1137377917766571,0.040819086134433746
1672829357422938600,11.520938720703125,9.830126762390137,-0.08020110428333282,0.04561004042625427
1672829357432884500,11.530884521484374,9.830126762390137,-0.08020110428333282,0.04561004042625427
1672829357442830600,11.54083056640625,9.820544242858887,-0.06582823395729065,0.0504009984433651
1672829357452776400,11.5507763671875,9.825335502624512,-0.08978301286697388,0.04561004042625427
1672829357462722600,11.56072265625,9.820544242858887,-0.10415588319301605,0.04561004042625427
1672829357472668400,11.57066845703125,9.830126762390137,-0.11852875351905823,0.040819086134433746
1672829357482614500,11.580614501953125,9.834917068481445,-0.1137377917766571,0.04561004042625427
1672829357492560400,11.590560302734374,9.820544242858887,-0.10415588319301605,0.04561004042625427
1672829357502506500,11.600506591796876,9.825335502624512,-0.08499205112457275,0.04561004042625427
1672829357512452400,11.610452392578125,9.825335502624512,-0.08020110428333282,0.0504009984433651
1672829357522398500,11.6203984375,9.815753936767578,-0.08499205112457275,0.0504009984433651
1672829357532344300,11.63034423828125,9.825335502624512,-0.08978301286697388,0.03602812811732292
1672829357542290400,11.64029052734375,9.825335502624512,-0.10894684493541718,0.03602812811732292
1672829357552236300,11.650236328125,9.782217025756836,-0.12331971526145935,0.03602812811732292
1672829357562182400,11.660182373046876,9.844499588012695,-0.1137377917766571,0.0504009984433651
1672829357572128500,11.67012841796875,9.834917068481445,-0.07061918079853058,0.0504009984433651
1672829357582074400,11.680074462890625,9.777425765991211,-0.07061918079853058,0.040819086134433746
1672829357592020500,11.6900205078125,9.892409324645996,-0.07061918079853058,0.04561004042625427
1672829357601966300,11.69996630859375,9.767844200134277,-0.09936492145061493,0.04561004042625427
1672829357611912400,11.709912353515625,9.758261680603027,-0.11852875351905823,0.031237170100212097
1672829357621858300,11.7198583984375,9.561832427978516,-0.1329016238451004,0.09351961314678192
1672829357631804400,11.729804443359376,10.261312484741211,-0.12811066210269928,-0.016672398895025253
1672829357641750300,11.739750244140625,9.734307289123535,-0.08978301286697388,0.0504009984433651
1672829357651696400,11.7496962890625,9.777425765991211,-0.0562463141977787,0.03602812811732292
1672829357661642200,11.759642333984376,9.921154975891113,-0.06103726848959923,0.021655255928635597
1672829357671588400,11.76958837890625,9.72951602935791,-0.08978301286697388,0.04561004042625427
1672829357681534200,11.7795341796875,9.906782150268555,-0.13769258558750153,0.040819086134433746
1672829357691480300,11.789480224609376,9.748680114746094,-0.14248353242874146,0.040819086134433746
1672829357701426200,11.79942626953125,9.820544242858887,-0.1329016238451004,0.04561004042625427
1672829357711372300,11.809372314453125,9.815753936767578,-0.09936492145061493,0.0504009984433651
1672829357721318400,11.819318359375,9.810962677001953,-0.07061918079853058,0.026446212083101273
1672829357731264500,11.829264404296875,9.863662719726562,-0.0754101425409317,0.04561004042625427
1672829357741210600,11.839210693359375,9.810962677001953,-0.094573974609375,0.0504009984433651
1672829357751156500,11.849156494140624,9.882826805114746,-0.1329016238451004,0.040819086134433746
1672829357761102000,11.85910205078125,9.763052940368652,-0.12811066210269928,0.040819086134433746
1672829357771048000,11.8690478515625,9.767844200134277,-0.13769258558750153,0.031237170100212097
1672829357780993800,11.878993896484374,9.921154975891113,-0.09936492145061493,-0.007090486586093903
1672829357790939400,11.888939453125,9.719934463500977,-0.04666439816355705,0.0887286514043808
1672829357800885200,11.89888525390625,9.906782150268555,-0.0370824858546257,0.031237170100212097
1672829357810831000,11.9088310546875,9.868453979492188,-0.10894684493541718,0.06477387249469757
1672829357820777000,11.91877685546875,9.830126762390137,-0.094573974609375,0.03602812811732292
1672829357830722800,11.928722900390625,9.796589851379395,-0.09936492145061493,0.012073341757059097
1672829357840669000,11.9386689453125,9.988227844238281,-0.18081119656562805,-0.007090486586093903
1672829357850615300,11.948615234375,9.648070335388184,-0.1520654559135437,0.04561004042625427
1672829357860564500,11.958564453125,9.79179859161377,-0.12331971526145935,0.04561004042625427
1672829357870508300,11.96850830078125,9.935527801513672,-0.1329016238451004,0.021655255928635597
1672829357880451800,11.978451904296875,9.79179859161377,-0.0754101425409317,0.026446212083101273
1672829357890399200,11.988399169921875,9.954690933227539,-0.094573974609375,0.026446212083101273
1672829357900346000,11.99834619140625,9.772634506225586,-0.10894684493541718,0.040819086134433746
1672829357910302000,12.008302001953124,9.854081153869629,-0.15685640275478363,0.03602812811732292
1672829357920238000,12.018238037109375,9.820544242858887,-0.1520654559135437,0.021655255928635597
1672829357930174700,12.0281748046875,9.834917068481445,-0.12331971526145935,0.04561004042625427
1672829357940112100,12.038112060546876,9.815753936767578,-0.0754101425409317,0.03602812811732292
1672829357950050600,12.048050537109376,9.878035545349121,-0.10415588319301605,0.04561004042625427
1672829357959990300,12.057990234375,9.834917068481445,-0.0754101425409317,0.040819086134433746
1672829357969931500,12.067931640625,9.806171417236328,-0.08499205112457275,0.040819086134433746
1672829357979874300,12.077874267578125,9.820544242858887,-0.12811066210269928,0.0504009984433651
1672829357989818600,12.087818603515625,9.68160629272461,-0.06103726848959923,0.012073341757059097
1672829357999765000,12.097764892578125,9.849289894104004,-0.094573974609375,0.031237170100212097
1672829358009712600,12.107712646484375,10.036137580871582,-0.11852875351905823,0.026446212083101273
1672829358019662000,12.117662109375,9.796589851379395,-0.08020110428333282,0.04561004042625427
1672829358029612500,12.127612548828125,9.868453979492188,-0.08978301286697388,0.016864299774169922
1672829358039564300,12.137564208984376,9.825335502624512,-0.0754101425409317,0.021655255928635597
1672829358049516500,12.1475166015625,9.878035545349121,-0.08499205112457275,0.002491425722837448
1672829358059469600,12.157469482421876,9.815753936767578,-0.08978301286697388,0.04561004042625427
1672829358069422600,12.167422607421875,9.878035545349121,-0.12811066210269928,0.007282383739948273
1672829358079374000,12.1773740234375,9.83970832824707,-0.1903931051492691,0.11268344521522522
1672829358089320000,12.18731982421875,9.68160629272461,-0.12811066210269928,0.07435578107833862
1672829358099266000,12.19726611328125,9.849289894104004,-0.08020110428333282,0.040819086134433746
1672829358109212200,12.207212158203125,9.810962677001953,-0.0035457871854305267,0.06477387249469757
1672829358119158000,12.217157958984375,9.700770378112793,0.03478186950087547,0.07435578107833862
1672829358129104100,12.227104248046874,9.959482192993164,-0.013127699494361877,0.06477387249469757
1672829358139050000,12.237050048828126,9.892409324645996,-0.08978301286697388,0.0504009984433651
1672829358148996000,12.24699609375,9.83970832824707,-0.1520654559135437,0.016864299774169922
1672829358158942000,12.25694189453125,9.758261680603027,-0.1520654559135437,0.03602812811732292
1672829358168888000,12.26688818359375,10.01218318939209,-0.16164736449718475,0.026446212083101273
1672829358178834000,12.276833984375,9.767844200134277,-0.051455359905958176,0.04561004042625427
1672829358188780000,12.286780029296875,9.873245239257812,0.006036127917468548,0.0887286514043808
1672829358198726000,12.296725830078126,9.763052940368652,0.020408999174833298,0.10310152173042297
1672829358208672000,12.306672119140625,9.935527801513672,0.0012451708316802979,0.06477387249469757
1672829358218617900,12.316617919921875,9.849289894104004,-0.10894684493541718,0.07435578107833862
1672829358228564000,12.32656396484375,9.90199089050293,-0.15685640275478363,0.05519195646047592
1672829358238509800,12.336509765625,9.858872413635254,-0.16164736449718475,0.002491425722837448
1672829358248456000,12.3464560546875,9.772634506225586,-0.12811066210269928,0.0887286514043808
1672829358258401800,12.35640185546875,9.825335502624512,-0.022709615528583527,0.040819086134433746
1672829358268348000,12.366347900390625,9.787008285522461,0.010827085003256798,0.18933875858783722
1672829358278293800,12.376293701171875,9.844499588012695,-0.2478845864534378,0.6684344410896301
1672829358288239900,12.386239990234374,9.820544242858887,-0.23830269277095795,0.4767961800098419
1672829358298185700,12.396185791015625,9.892409324645996,-0.19997502863407135,0.23245736956596375
1672829358308131800,12.4061318359375,9.825335502624512,-0.26225748658180237,0.17017492651939392
1672829358318077700,12.41607763671875,9.652860641479492,-0.171229287981987,0.15580205619335175
1672829358328023800,12.42602392578125,9.796589851379395,0.11143718659877777,-0.011881444603204727
1672829358337969700,12.4359697265625,10.055301666259766,0.04436378553509712,0.07435578107833862
1672829358347915800,12.445915771484374,9.945109367370605,0.10185526311397552,0.09351961314678192
1672829358357862000,12.45586181640625,9.878035545349121,0.24079303443431854,-0.4095308780670166
1672829358367807700,12.465807861328125,9.753471374511719,0.23600207269191742,-0.6682425737380981
1672829358377753900,12.47575390625,9.854081153869629,0.06352761387825012,-0.5293048620223999
1672829358387699700,12.48569970703125,9.700770378112793,-0.17602023482322693,0.256412148475647
1672829358397645800,12.495645751953125,9.748680114746094,-0.051455359905958176,-0.0454181469976902
1672829358407591700,12.505591796875,9.878035545349121,0.010827085003256798,0.05998291075229645
1672829358417537800,12.515537841796874,9.830126762390137,0.08269144594669342,0.05998291075229645
1672829358427483600,12.525483642578125,9.878035545349121,0.07310952246189117,0.12226535379886627
1672829358437429800,12.5354296875,9.758261680603027,0.020408999174833298,0.1462201476097107
1672829358447375600,12.545375732421874,9.820544242858887,-0.02750057354569435,0.040819086134433746
1672829358457321700,12.55532177734375,9.906782150268555,-0.08020110428333282,0.04561004042625427
1672829358467267600,12.565267578125,10.007391929626465,-0.08020110428333282,0.040819086134433746
1672829358477213700,12.575213623046874,9.878035545349121,-0.03229152783751488,0.10310152173042297
1672829358487159600,12.58515966796875,9.94031810760498,0.0395728275179863,0.06477387249469757
1672829358497105700,12.595105712890625,9.978646278381348,0.0587366558611393,0.11268344521522522
1672829358507051500,12.605051513671874,9.983436584472656,0.07310952246189117,0.07914674282073975
1672829358516997600,12.61499755859375,9.945109367370605,0.020408999174833298,0.1270563155412674
1672829358526943500,12.624943603515625,9.882826805114746,-0.013127699494361877,0.17017492651939392
1672829358536889600,12.6348896484375,9.806171417236328,-0.013127699494361877,0.22766640782356262
1672829358546835500,12.64483544921875,9.686397552490234,-0.2478845864534378,0.802581250667572
1672829358556781600,12.654781494140625,9.700770378112793,-0.2526755630970001,1.181066870689392
1672829358566727700,12.664727783203125,10.103211402893066,-0.10415588319301605,0.7929993271827698
1672829358576673500,12.674673583984376,10.314013481140137,0.0970643162727356,0.06477387249469757
1672829358586619600,12.68461962890625,10.409832000732422,0.34140312671661377,-0.5772144198417664
1672829358596565500,12.6945654296875,10.01218318939209,0.3701488673686981,-0.8742537498474121
1672829358606511600,12.70451171875,9.753471374511719,0.29828450083732605,-0.6299149394035339
1672829358616457500,12.71445751953125,9.959482192993164,0.19767440855503082,-0.07895484566688538
1672829358626403600,12.724403564453125,9.825335502624512,0.16892866790294647,0.016864299774169922
1672829358636349400,12.734349365234374,9.830126762390137,0.2743297219276428,-0.08853675425052643
1672829358646295600,12.744295654296875,9.619324684143066,0.2647477984428406,0.002491425722837448
1672829358656241400,12.754241455078125,9.504341125488281,0.2695387601852417,0.07914674282073975
1672829358666187500,12.7641875,9.427685737609863,0.2695387601852417,0.17975685000419617
1672829358676133400,12.77413330078125,9.485177040100098,0.2934935390949249,-0.007090486586093903
1672829358686079500,12.78407958984375,9.787008285522461,0.2743297219276428,-0.09811866283416748
1672829358696025300,12.794025390625,9.954690933227539,0.2312111109495163,0.17017492651939392
1672829358705971500,12.803971435546876,10.352340698242188,0.24079303443431854,0.09831057488918304
1672829358715917300,12.813917236328125,10.49606990814209,0.31744831800460815,-0.059791017323732376
1672829358725863400,12.823863525390625,11.061402320861816,0.3078664243221283,0.17017492651939392
1672829358735809300,12.833809326171876,11.13326644897461,0.3030754625797272,0.2612031102180481
1672829358745755400,12.84375537109375,10.984746932983398,0.3270302414894104,0.27078503370285034
1672829358755701200,12.853701171875,11.07098388671875,0.37493979930877686,0.15580205619335175
1672829358765647400,12.8636474609375,10.80748176574707,0.39889460802078247,0.07435578107833862
1672829358775593200,12.87359326171875,10.42420482635498,0.5330414175987244,0.3570222556591034
1672829358785539300,12.883539306640625,10.251730918884277,1.0696285963058472,0.6396886706352234
1672829358795485400,12.8934853515625,10.371504783630371,0.6336514949798584,0.5965700745582581
1672829358805431300,12.903431396484375,10.53439712524414,0.16413772106170654,0.21808449923992157
1672829358815377400,12.91337744140625,10.462532997131348,0.5761600136756897,0.15580205619335175
1672829358825323300,12.9233232421875,10.625425338745117,1.4337413311004639,0.2995307743549347
1672829358835269400,12.933269287109376,10.793108940124512,1.093583345413208,0.3139036297798157
1672829358845215200,12.94321533203125,11.042238235473633,0.5809509754180908,0.495959997177124
1672829358855161300,12.953161376953124,10.927255630493164,1.3762497901916504,0.40493181347846985
1672829358865107200,12.963107177734376,10.893718719482422,2.2242493629455566,0.27078503370285034
1672829358875053300,12.97305322265625,10.797900199890137,1.4337413311004639,0.19412972033023834
1672829358884999200,12.982999267578125,10.572724342346191,1.5247695446014404,-0.30412980914115906
1672829358894945300,12.9929453125,10.093628883361816,1.9320008754730225,-0.4478585422039032
1672829358904891100,13.00289111328125,9.796589851379395,2.094893455505371,-0.38078513741493225
1672829358914837200,13.012837158203125,9.46601390838623,2.2338311672210693,-0.30412980914115906
1672829358924783000,13.022783203125,9.298330307006836,2.4206786155700684,-0.2610112130641937
1672829358934729200,13.032729248046875,9.600160598754883,2.3392324447631836,-0.07895484566688538
1672829358944675000,13.042675048828125,9.35582160949707,1.9224189519882202,-0.007090486586093903
1672829358954621200,13.05262109375,9.504341125488281,1.9415827989578247,0.13184726238250732
1672829358964567000,13.062567138671875,9.695980072021484,2.3440232276916504,-0.15561015903949738
1672829358974513200,13.07251318359375,9.643279075622559,2.7560455799102783,-0.768852710723877
1672829358984459000,13.082458984375,9.652860641479492,3.0914125442504883,-1.2383664846420288
1672829358994405000,13.092405029296875,9.432476997375488,3.3070056438446045,-1.4587504863739014
1672829359004351000,13.10235107421875,9.068364143371582,3.431570529937744,-1.2335755825042725
1672829359014297000,13.112297119140624,8.756952285766602,3.5992541313171387,-0.7784345746040344
1672829359024243200,13.1222431640625,8.38804817199707,3.551344394683838,-0.1795649379491806
1672829359034189000,13.13218896484375,8.426376342773438,3.3884520530700684,0.18933875858783722
1672829359044135200,13.14213525390625,8.56052303314209,3.441152572631836,0.5486605167388916
1672829359054081000,13.1520810546875,8.689878463745117,3.474689245223999,0.8361179232597351
1672829359064027100,13.162027099609375,8.670714378356934,4.116677284240723,0.8744456171989441
1672829359073973000,13.171972900390625,9.293539047241211,4.222078323364258,0.3570222556591034
1672829359083919000,13.181919189453126,9.279166221618652,4.428089618682861,0.002491425722837448
1672829359093865000,13.191864990234375,8.77132511138916,4.586191177368164,-0.2945479154586792
1672829359103811000,13.20181103515625,8.440749168395996,4.820948123931885,-0.5005590915679932
1672829359113757000,13.2117568359375,8.023935317993164,4.782620429992676,-0.6730335354804993
1672829359123703000,13.221703125,7.602330684661865,4.9790496826171875,-0.6011691689491272
1672829359133649000,13.23164892578125,7.535257339477539,5.103614807128906,-0.5772144198417664
1672829359143595000,13.241594970703124,7.8897881507873535,5.659365653991699,-0.6059601306915283
1672829359153540900,13.251540771484375,8.435957908630371,5.443772315979004,0.06477387249469757
1672829359163487000,13.261487060546875,8.052680969238281,4.600564002990723,1.2625131607055664
1672829359173432800,13.271432861328124,8.268274307250977,5.395863056182861,1.7751455307006836
1672829359183379000,13.28137890625,8.503031730651855,5.793512344360352,1.1139934062957764
1672829359193324800,13.29132470703125,8.680296897888184,5.851003646850586,-0.04062718525528908
1672829359203271000,13.30127099609375,8.301811218261719,5.458145618438721,-0.7496888637542725
1672829359213216800,13.311216796875,7.77001428604126,5.755184650421143,-0.7928074598312378
1672829359223163000,13.321162841796875,7.204681396484375,6.306144714355469,-0.5293048620223999
1672829359233108700,13.331108642578124,6.548320293426514,6.282189846038818,-0.14602823555469513
1672829359243054800,13.341054931640626,6.423755645751953,6.29177188873291,0.08393769711256027
1672829359253001000,13.3510009765625,6.5914387702941895,6.200743675231934,0.20850259065628052
1672829359262946800,13.36094677734375,6.945969581604004,6.459455490112305,0.0504009984433651
1672829359272893000,13.370892822265626,7.578376293182373,6.9481329917907715,-0.36162132024765015
1672829359282838800,13.3808388671875,7.760432720184326,6.8714776039123535,-0.22747451066970825
1672829359292785000,13.390784912109375,7.458602428436279,6.722958087921143,0.21808449923992157
1672829359302730800,13.400730712890624,7.008252143859863,6.516946792602539,0.7402988076210022
1672829359312676900,13.4106767578125,6.955551624298096,7.005624771118164,0.7115530371665955
1672829359322622700,13.420622802734375,7.3340373039245605,7.158935070037842,0.39055895805358887
1672829359332568800,13.43056884765625,6.677676200866699,6.8331499099731445,-0.19393780827522278
1672829359342514700,13.4405146484375,6.414173603057861,7.192471981048584,-0.11249153316020966
1672829359352460800,13.450460693359375,5.839258670806885,7.388901233673096,-0.0645819753408432
1672829359362406700,13.46040673828125,5.9254961013793945,7.144562244415283,-0.1029096245765686
1672829359372352800,13.470352783203126,5.594919681549072,7.537420749664307,0.07435578107833862
1672829359382298600,13.480298583984375,5.724275588989258,7.537420749664307,-0.011881444603204727
1672829359392244700,13.49024462890625,5.868004322052002,7.537420749664307,-0.13165536522865295
1672829359402190600,13.500190673828126,6.050060749053955,7.623658180236816,-0.04062718525528908
1672829359412136700,13.51013671875,6.0740156173706055,7.74343204498291,0.22766640782356262
1672829359422082600,13.52008251953125,5.5565924644470215,7.594912052154541,0.5678243637084961
1672829359432028700,13.530028564453126,4.962513446807861,7.4320197105407715,0.33306747674942017
1672829359441974500,13.539974609375,4.502581596374512,7.9494428634643555,0.2659940719604492
1672829359451920600,13.549920654296875,4.430717468261719,7.9494428634643555,-0.14602823555469513
1672829359461866500,13.559866455078126,4.5840277671813965,7.9925618171691895,-0.22747451066970825
1672829359471812600,13.5698125,4.780457019805908,8.524357795715332,0.0887286514043808
1672829359481758700,13.5797587890625,4.871485233306885,8.208154678344727,0.2995307743549347
1672829359491704600,13.58970458984375,4.981677532196045,8.241690635681152,0.663643479347229
1672829359501650700,13.599650634765625,5.278716564178467,8.236900329589844,0.6061519980430603
1672829359511596500,13.609596435546875,5.681157112121582,8.399792671203613,0.6396886706352234
1672829359521542700,13.619542724609374,5.154151916503906,8.668086051940918,0.09351961314678192
1672829359531488500,13.629488525390625,4.114514350891113,8.744741439819336,-0.4813952147960663
1672829359541434600,13.6394345703125,3.3192152976989746,9.104063034057617,-0.9940276145935059
1672829359551380500,13.64938037109375,4.061813831329346,8.854933738708496,-0.007090486586093903
1672829359561326600,13.65932666015625,4.33010721206665,8.52914810180664,0.9367280602455139
1672829359571272700,13.669272705078125,4.301361560821533,8.735159873962402,0.39534991979599
1672829359581218800,13.67921875,4.358852863311768,8.941170692443848,0.40493181347846985
1672829359591165200,13.689165283203126,4.253451824188232,8.96512508392334,0.7163439989089966
1672829359601111600,13.699111572265625,4.061813831329346,8.878888130187988,0.5055419206619263
1672829359611058000,13.709057861328125,3.9468307495117188,8.993871688842773,0.2755759656429291
1672829359621003500,13.71900341796875,3.9180848598480225,9.080108642578125,-0.03583623096346855
1672829359630950000,13.728949951171876,3.491689682006836,8.797442436218262,-0.21310162544250488
1672829359640895500,13.7388955078125,2.825746774673462,9.195091247558594,-1.214411735534668
1672829359650841300,13.74884130859375,2.2364590167999268,9.099272727966309,-0.6011691689491272
1672829359660787200,13.758787109375,2.6628541946411133,9.28611946105957,0.21808449923992157
1672829359670733000,13.768733154296875,2.2125041484832764,9.204673767089844,0.4001408815383911
1672829359680679000,13.778678955078124,2.1741766929626465,9.329237937927246,-0.021463360637426376
1672829359690624800,13.788624755859376,2.0160748958587646,9.357983589172363,0.1653839647769928
1672829359700575200,13.7985751953125,2.078357458114624,9.34840202331543,0.4672142565250397
1672829359710530300,13.8085302734375,2.2125041484832764,9.501712799072266,0.15101109445095062
1672829359720463600,13.818463623046876,2.6245265007019043,9.439430236816406,-0.16519206762313843
1672829359730407200,13.8284072265625,1.762154221534729,9.45859432220459,-1.1569201946258545
1672829359740361500,13.838361572265624,1.3692957162857056,9.50650405883789,-0.4286946952342987
1672829359750301400,13.848301513671874,1.0147649049758911,9.563995361328125,0.13663822412490845
1672829359760242000,13.858241943359374,1.0483016967773438,9.592741012573242,0.002491425722837448
1672829359770182700,13.8681826171875,1.2543127536773682,9.592741012573242,-0.15561015903949738
1672829359780124200,13.878124267578125,1.426787257194519,9.640650749206543,-0.217892587184906
1672829359790066200,13.888066162109375,1.2159851789474487,9.631068229675293,0.0504009984433651
1672829359800009200,13.89800927734375,1.1249569654464722,9.674186706542969,0.0695648267865181
1672829359809953300,13.907953369140625,1.1201659440994263,9.678977966308594,-0.16998302936553955
1672829359819898400,13.9178984375,1.148911714553833,9.712514877319336,-0.18914684653282166
1672829359829844500,13.927844482421875,0.8902000188827515,9.774797439575195,-0.5532596111297607
1672829359839791600,13.93779150390625,0.6937708258628845,9.817915916442871,0.1845477968454361
1672829359849739500,13.947739501953125,-0.02008180320262909,9.688560485839844,0.42409566044807434
1672829359859688400,13.9576884765625,0.33444902300834656,9.726887702941895,0.3186945915222168
1672829359869638000,13.967637939453125,0.2098841369152069,9.640650749206543,0.39534991979599
1672829359879587600,13.977587646484375,0.16676552593708038,9.813124656677246,0.031237170100212097
1672829359889537800,13.987537841796875,0.5500420928001404,9.803543090820312,0.012073341757059097
1672829359899488000,13.997488037109376,0.9045729041099548,9.813124656677246,-0.1029096245765686
1672829359909437400,14.0074375,0.7608441710472107,9.88019847869873,-0.16998302936553955
1672829359919383300,14.01738330078125,0.6554431319236755,9.774797439575195,0.12226535379886627
1672829359929329400,14.027329345703125,0.6506521701812744,9.750842094421387,0.3139036297798157
1672829359939275300,14.037275146484374,0.18592935800552368,9.750842094421387,0.2803669273853302
1672829359949221400,14.047221435546875,0.05657351016998291,9.779587745666504,0.21808449923992157
1672829359959167200,14.057167236328125,0.003872975707054138,9.784379005432129,0.15101109445095062
1672829359969113300,14.06711328125,-0.029663726687431335,9.798751831054688,0.09351961314678192
1672829359979059200,14.07705908203125,0.09969212114810944,9.865825653076172,0.021655255928635597
1672829359989005300,14.08700537109375,0.22425700724124908,9.822707176208496,0.03602812811732292
1672829359998951400,14.096951416015624,0.1715564727783203,9.889780044555664,-0.16998302936553955
1672829360008897300,14.106897216796876,-0.015290841460227966,9.875407218933105,-0.11249153316020966
1672829360018843400,14.116843505859375,-0.14464668929576874,9.817915916442871,0.012073341757059097
1672829360028789200,14.126789306640624,-0.2692115902900696,9.841870307922363,0.05998291075229645
1672829360038735400,14.1367353515625,-0.18297435343265533,9.846661567687988,-0.016672398895025253
1672829360048681200,14.14668115234375,-0.005708932876586914,9.856243133544922,0.002491425722837448
1672829360058627300,14.15662744140625,-0.029663726687431335,9.851452827453613,0.040819086134433746
1672829360068573200,14.1665732421875,-0.12548287212848663,9.861034393310547,-0.011881444603204727
1672829360078519300,14.176519287109375,-0.09673713147640228,9.875407218933105,-0.1412372887134552
1672829360088465200,14.186465087890625,-0.08715520799160004,9.865825653076172,-0.13644632697105408
1672829360098411300,14.196411376953124,-0.07757328450679779,9.87061595916748,-0.0837457925081253
1672829360108357000,14.206357177734375,-0.2500477433204651,9.846661567687988,0.016864299774169922
1672829360118303200,14.21630322265625,-0.2356748729944229,9.856243133544922,0.007282383739948273
1672829360128249000,14.2262490234375,-0.10152806341648102,9.846661567687988,0.0504009984433651
1672829360138195200,14.2361953125,-0.024872764945030212,9.841870307922363,-0.011881444603204727
1672829360148141000,14.24614111328125,0.07573734223842621,9.875407218933105,-0.04062718525528908
1672829360158087200,14.256087158203124,0.25300276279449463,9.841870307922363,0.0695648267865181
1672829360168033000,14.266032958984376,0.2865394353866577,9.856243133544922,0.012073341757059097
1672829360177979100,14.275979248046875,0.27695754170417786,9.851452827453613,0.06477387249469757
1672829360187925000,14.285925048828124,0.39194050431251526,9.837080001831055,0.0504009984433651
1672829360197871000,14.29587109375,0.43026816844940186,9.856243133544922,-0.007090486586093903
1672829360207817000,14.30581689453125,0.39194050431251526,9.861034393310547,0.016864299774169922
1672829360217763000,14.31576318359375,0.2290479689836502,9.861034393310547,-0.09332771599292755
1672829360227709200,14.325709228515626,0.25300276279449463,9.861034393310547,-0.011881444603204727
1672829360237655000,14.335655029296875,0.43026816844940186,9.837080001831055,0.10310152173042297
1672829360247601200,14.34560107421875,0.6506521701812744,9.851452827453613,0.0695648267865181
1672829360257547000,14.355547119140626,0.6985617876052856,9.861034393310547,0.016864299774169922
1672829360267493000,14.3654931640625,0.5548330545425415,9.865825653076172,-0.016672398895025253
1672829360277439000,14.37543896484375,0.43026816844940186,9.851452827453613,0.031237170100212097
1672829360287385000,14.385385009765624,0.5452511310577393,9.865825653076172,-0.011881444603204727
1672829360297331000,14.3953310546875,0.6075335741043091,9.856243133544922,0.03602812811732292
1672829360307277000,14.405277099609375,0.4446410536766052,9.856243133544922,0.002491425722837448
1672829360317223000,14.415222900390624,0.1715564727783203,9.856243133544922,0.002491425722837448
1672829360327169000,14.4251689453125,0.08531925082206726,9.837080001831055,0.0695648267865181
1672829360337115000,14.435114990234375,0.2673756182193756,9.827497482299805,0.0887286514043808
1672829360347061000,14.44506103515625,0.5979516506195068,9.851452827453613,0.07435578107833862
1672829360357006800,14.4550068359375,0.9572734236717224,9.837080001831055,0.10310152173042297
1672829360366953000,14.464952880859375,1.0435106754302979,9.846661567687988,0.012073341757059097
1672829360376898800,14.47489892578125,0.7991718649864197,9.894571304321289,-0.07895484566688538
1672829360386845000,14.484844970703126,0.5260872840881348,9.87061595916748,-0.07416388392448425
1672829360396790800,14.494790771484375,0.3200761675834656,9.846661567687988,0.012073341757059097
1672829360406737000,14.50473681640625,0.1715564727783203,9.851452827453613,0.021655255928635597
1672829360416682800,14.514682861328126,0.04699160158634186,9.827497482299805,0.0504009984433651
1672829360426628900,14.52462890625,-0.010499894618988037,9.841870307922363,0.040819086134433746
1672829360436574700,14.53457470703125,-0.024872764945030212,9.846661567687988,-0.03104526922106743
1672829360446520800,14.544520751953126,0.08052828907966614,9.856243133544922,0.007282383739948273
1672829360456467000,14.554467041015625,0.008663937449455261,9.851452827453613,0.007282383739948273
1672829360466412800,14.564412841796875,-0.03445468842983246,9.861034393310547,0.002491425722837448
1672829360476359000,14.57435888671875,0.06136447191238403,9.865825653076172,0.007282383739948273
1672829360486304800,14.5843046875,0.02782776951789856,9.841870307922363,0.03602812811732292
1672829360496251000,14.5942509765625,0.003872975707054138,9.87061595916748,-0.007090486586093903
1672829360506196700,14.60419677734375,0.12364690750837326,9.83228874206543,0.002491425722837448
1672829360516142800,14.614142822265626,0.16676552593708038,9.88019847869873,-0.08853675425052643
1672829360526088700,14.624088623046875,0.2050931751728058,9.851452827453613,-0.04062718525528908
1672829360536034800,14.634034912109374,0.2482118010520935,9.865825653076172,-0.002299528568983078
1672829360545980700,14.643980712890626,0.27216657996177673,9.846661567687988,0.04561004042625427
1672829360555926800,14.6539267578125,0.3775676488876343,9.827497482299805,0.06477387249469757
1672829360565872600,14.66387255859375,0.4925506114959717,9.851452827453613,0.0504009984433651
1672829360575818800,14.67381884765625,0.5500420928001404,9.856243133544922,-0.011881444603204727
1672829360585764600,14.6837646484375,0.48296868801116943,9.875407218933105,-0.04062718525528908
1672829360595710700,14.693710693359375,0.43026816844940186,9.846661567687988,0.06477387249469757
1672829360605656600,14.703656494140626,0.42547720670700073,9.817915916442871,0.15580205619335175
1672829360615602700,14.713602783203125,0.3057032823562622,9.83228874206543,0.10310152173042297
1672829360625548500,14.723548583984375,0.2290479689836502,9.856243133544922,-0.011881444603204727
1672829360635494700,14.73349462890625,0.29133039712905884,9.856243133544922,0.021655255928635597
1672829360645440500,14.7434404296875,0.4015223979949951,9.841870307922363,0.040819086134433746
1672829360655386600,14.75338671875,0.29612135887145996,9.856243133544922,0.002491425722837448
1672829360665332500,14.76333251953125,-0.010499894618988037,9.837080001831055,-0.026254314929246902
1672829360675278600,14.773278564453125,-0.28358447551727295,9.861034393310547,-0.0837457925081253
1672829360685224700,14.783224609375,-0.2787935137748718,9.846661567687988,-0.059791017323732376
1672829360695170600,14.793170654296874,-0.16860146820545197,9.83228874206543,-0.059791017323732376
1672829360705116700,14.80311669921875,-0.058409467339515686,9.87061595916748,-0.09332771599292755
1672829360715062500,14.8130625,0.19551126658916473,9.827497482299805,-0.03104526922106743
1672829360725008600,14.823008544921874,0.2673756182193756,9.822707176208496,0.012073341757059097
1672829360734954500,14.83295458984375,0.25779369473457336,9.798751831054688,0.10310152173042297
1672829360744900600,14.842900634765625,0.27695754170417786,9.813124656677246,0.016864299774169922
1672829360754846500,14.852846435546875,0.35361284017562866,9.779587745666504,0.14142918586730957
1672829360764792600,14.86279248046875,0.41110432147979736,9.760424613952637,0.11747439205646515
1672829360774738400,14.872738525390625,0.6985617876052856,9.741260528564453,0.1270563155412674
1672829360784684500,14.8826845703125,0.41110432147979736,9.784379005432129,0.05519195646047592
1672829360794630400,14.89263037109375,0.3631947636604309,9.760424613952637,0.0695648267865181
1672829360804576500,14.902576416015625,0.41110432147979736,9.73167896270752,0.05998291075229645
1672829360814522400,14.9125224609375,0.4590139091014862,9.698142051696777,0.15580205619335175
1672829360824468500,14.922468505859374,0.6698160171508789,9.726887702941895,0.016864299774169922
1672829360834414300,14.932414306640625,0.7943809032440186,9.698142051696777,0.012073341757059097
1672829360844360400,14.9423603515625,0.9524824619293213,9.683769226074219,0.0504009984433651
1672829360854306300,14.952306396484374,0.981228232383728,9.678977966308594,-0.011881444603204727
1672829360864252400,14.96225244140625,0.9381095767021179,9.626277923583984,0.0695648267865181
1672829360874198300,14.9721982421875,1.1968213319778442,9.602322578430176,0.1270563155412674
1672829360884144400,14.982144287109374,1.4938606023788452,9.597532272338867,0.031237170100212097
1672829360894090200,14.99209033203125,1.5417702198028564,9.626277923583984,-0.05500005558133125
1672829360904036400,15.002036376953125,1.4938606023788452,9.578368186950684,-0.026254314929246902
1672829360913982500,15.011982421875,1.3309680223464966,9.540040016174316,-0.03583623096346855
1672829360923928300,15.02192822265625,1.4172053337097168,9.501712799072266,0.09831057488918304
1672829360933874400,15.03187451171875,1.6567531824111938,9.425057411193848,0.28994885087013245
1672829360943820300,15.0418203125,1.4651148319244385,9.425057411193848,0.007282383739948273
1672829360953766400,15.051766357421876,1.9585834741592407,9.429848670959473,0.0887286514043808
1672829360963712300,15.061712158203125,1.8675552606582642,9.310074806213379,0.37139514088630676
1672829360973658400,15.071658447265625,1.6807079315185547,9.310074806213379,-0.18435589969158173
1672829360983604200,15.081604248046874,1.896301031112671,9.257373809814453,-0.46223142743110657
1672829360993550300,15.09155029296875,2.490379810333252,9.228628158569336,-0.026254314929246902
1672829361003496200,15.10149609375,2.6484813690185547,9.099272727966309,0.07435578107833862
1672829361013442300,15.1114423828125,3.0700855255126953,9.089690208435059,-0.021463360637426376
1672829361023388200,15.12138818359375,3.2521419525146484,9.0753173828125,-0.1220734566450119
1672829361033334300,15.131334228515625,3.271305799484253,8.955543518066406,0.12226535379886627
1672829361043280100,15.141280029296874,3.2090232372283936,8.907633781433105,0.17017492651939392
1672829361053226200,15.151226318359376,2.6820180416107178,8.859724044799805,0.07914674282073975
1672829361063172000,15.161172119140625,2.442470073699951,8.749532699584961,0.17017492651939392
1672829361073118200,15.1711181640625,2.6868088245391846,8.6393404006958,0.27078503370285034
1672829361083064000,15.18106396484375,3.2856786251068115,8.581849098205566,0.0695648267865181
1672829361093010200,15.19101025390625,4.01869535446167,8.438119888305664,1.0229653120040894
1672829361102956000,15.2009560546875,4.411553382873535,8.39021110534668,0.5678243637084961
1672829361112902100,15.210902099609376,4.651101112365723,8.212944984436035,-0.16998302936553955
1672829361122848000,15.220847900390625,4.718174934387207,8.208154678344727,-0.8502989411354065
1672829361132794000,15.230794189453125,5.0727057456970215,8.227317810058594,-0.9317452311515808
1672829361142740200,15.240740234375,5.417654514312744,8.074007034301758,0.15580205619335175
1672829361152686000,15.25068603515625,5.326626300811768,7.901533603668213,0.34744033217430115
1672829361162632200,15.260632080078125,5.340999126434326,7.834460258483887,0.19412972033023834
1672829361172578000,15.270578125,5.772185325622559,7.9159064292907715,0.563033401966095
1672829361182524200,15.280524169921875,5.810513019561768,7.542211532592773,0.8840274810791016
1672829361192470000,15.290469970703125,6.126716136932373,7.575748443603516,0.10310152173042297
1672829361202416000,15.300416015625,6.289608478546143,7.53262996673584,-0.09332771599292755
1672829361212362000,15.310362060546876,6.577065944671631,7.4320197105407715,0.026446212083101273
1672829361222308000,15.32030810546875,6.9268059730529785,7.379319190979004,0.040819086134433746
1672829361232254000,15.33025390625,7.28612756729126,7.14935302734375,-0.07416388392448425
1672829361242200000,15.340199951171876,7.472975254058838,7.106234550476074,-0.16998302936553955
1672829361252146000,15.35014599609375,7.5640034675598145,7.091861724853516,0.16059301793575287
1672829361262092000,15.360092041015625,7.348410129547119,7.005624771118164,0.5965700745582581
1672829361272038000,15.370037841796876,7.381947040557861,6.924178123474121,0.5869881510734558
1672829361281984000,15.37998388671875,7.300500392913818,6.9145965576171875,0.2755759656429291
1672829361291929900,15.389929931640625,7.0369977951049805,6.852313995361328,-0.04062718525528908
1672829361301876000,15.3998759765625,7.266963958740234,6.804404258728027,-0.20351973176002502
1672829361311821800,15.40982177734375,7.429856300354004,6.746912956237793,-0.22268354892730713
1672829361321768000,15.419767822265625,7.338828086853027,6.492991924285889,0.13184726238250732
1672829361331713800,15.4297138671875,7.12323522567749,6.627139091491699,0.2612031102180481
1672829361341660000,15.439659912109375,7.147190093994141,6.459455490112305,0.05998291075229645
1672829361351605800,15.449605712890625,7.276546001434326,6.368427276611328,-0.016672398895025253
1672829361361552000,15.4595517578125,7.238218307495117,6.3540544509887695,0.35223129391670227
1672829361371498000,15.469498046875,7.290918827056885,6.191161632537842,0.5678243637084961
1672829361381443800,15.47944384765625,7.353200912475586,6.133670330047607,0.6492705941200256
1672829361391390000,15.489389892578124,6.006942272186279,5.989941596984863,-0.11249153316020966
1672829361401336000,15.499336181640626,6.687258243560791,5.932450294494629,-0.4813952147960663
1672829361411282200,15.5092822265625,6.601020812988281,5.664156436920166,-0.9748638868331909
1672829361421228500,15.519228515625,6.979506492614746,5.477309226989746,-1.1090106964111328
1672829361431175000,15.5291748046875,7.381947040557861,5.5012640953063965,-0.1220734566450119
1672829361441121000,15.53912109375,7.77001428604126,5.204224586486816,0.4336775839328766
1672829361451067600,15.549067626953125,8.21557331085205,5.132360458374023,0.10310152173042297
1672829361461014000,15.559013916015624,8.459912300109863,4.974258899688721,0.1653839647769928
1672829361470958600,15.56895849609375,8.819234848022461,4.806575298309326,0.23724833130836487
1672829361480903400,15.5789033203125,9.087528228759766,4.739501953125,0.007282383739948273
1672829361490848300,15.58884814453125,9.1929292678833,4.682010173797607,-0.41911280155181885
1672829361500793300,15.59879345703125,8.857562065124512,4.5334906578063965,0.09351961314678192
1672829361510738700,15.60873876953125,8.747369766235352,4.408926010131836,0.18933875858783722
1672829361520684500,15.6186845703125,8.756952285766602,4.327479362487793,0.031237170100212097
1672829361530630400,15.62863037109375,8.843189239501953,4.193332672119141,0.002491425722837448
1672829361540576500,15.638576416015624,9.236047744750977,4.025649070739746,0.07435578107833862
1672829361550522600,15.648522705078125,9.648070335388184,3.881920576095581,0.13184726238250732
1672829361560469000,15.658468994140625,9.695980072021484,3.766937494277954,0.1462201476097107
1672829361570415400,15.668415283203124,9.6768159866333,3.6854913234710693,0.09351961314678192
1672829361580364000,15.678364013671874,9.600160598754883,3.627999782562256,0.11747439205646515
1672829361590310700,15.688310546875,9.513923645019531,3.556135416030884,0.0504009984433651
1672829361600256500,15.698256591796875,9.494759559631348,3.4459433555603027,0.10310152173042297
1672829361610202600,15.70820263671875,9.346240043640137,3.3357512950897217,0.1270563155412674
1672829361620148500,15.7181484375,9.18334674835205,3.244723320007324,0.002491425722837448
1672829361630094600,15.728094482421875,9.31749439239502,3.105785369873047,0.0504009984433651
1672829361640040400,15.73804052734375,9.557042121887207,2.9668476581573486,0.14142918586730957
1672829361649986600,15.747986572265624,9.557042121887207,2.880610466003418,0.15101109445095062
1672829361659932700,15.7579326171875,9.46601390838623,2.813537120819092,0.07435578107833862
1672829361669878500,15.76787841796875,9.264793395996094,2.7177178859710693,0.09351961314678192
1672829361679824600,15.77782470703125,9.188138008117676,2.6362717151641846,0.007282383739948273
1672829361689770500,15.7877705078125,9.288748741149902,2.540452480316162,-0.1220734566450119
1672829361699716600,15.797716552734375,9.624114990234375,2.473379135131836,-0.24663832783699036
1672829361709662500,15.807662353515624,9.80138111114502,2.3727691173553467,-0.20831069350242615
1672829361719608600,15.817608642578126,9.576205253601074,2.2242493629455566,-0.1987287700176239
1672829361729554400,15.827554443359375,9.288748741149902,2.1523849964141846,-0.20351973176002502
1672829361739500500,15.83750048828125,9.236047744750977,1.9751194715499878,-0.1220734566450119
1672829361749446400,15.8474462890625,9.394149780273438,1.9559556245803833,0.03602812811732292
1672829361759392500,15.857392578125,9.561832427978516,1.5822609663009644,0.12226535379886627
1672829361769338400,15.86733837890625,9.46601390838623,1.5247695446014404,0.09351961314678192
1672829361779284500,15.877284423828126,9.389358520507812,1.5199785232543945,-0.1412372887134552
1672829361789230300,15.887230224609375,10.00260066986084,1.3858317136764526,-0.5101410150527954
1672829361799176400,15.897176513671875,10.22298526763916,1.3235492706298828,-0.5963782072067261
1672829361809122300,15.907122314453124,10.246939659118652,1.2516849040985107,-0.47181329131126404
1672829361819068400,15.917068359375,9.954690933227539,1.060046672821045,-0.19393780827522278
1672829361829014300,15.92701416015625,9.504341125488281,0.8827812671661377,-0.03104526922106743
1672829361838960400,15.93696044921875,9.365403175354004,0.758216381072998,-0.11728249490261078
1672829361848906200,15.94690625,9.470804214477539,0.6049057245254517,-0.5340957641601562
1672829361858852400,15.956852294921875,9.552250862121582,0.547414243221283,-1.2287845611572266
1672829361868798200,15.966798095703124,9.461222648620605,0.45638608932495117,-1.5306148529052734
1672829361878744300,15.976744384765626,9.413312911987305,0.33661216497421265,-1.4060499668121338
1672829361888690400,15.9866904296875,12.824474334716797,0.029990913346409798,-0.07895484566688538
1672829361898636300,15.99663623046875,21.544015884399414,-0.6599069237709045,5.3875274658203125
1672829361908582400,16.00658251953125,12.513062477111816,-0.19997502863407135,4.879685878753662
1672829361918528300,16.0165283203125,8.886307716369629,0.22642016410827637,-0.16519206762313843
1672829361928474400,16.026474365234375,7.822714805603027,0.5426232814788818,-0.8359261155128479
1672829361938420200,16.036420166015624,10.778736114501953,-0.06582823395729065,0.9558918476104736
1672829361948366300,16.046366455078125,9.600160598754883,0.24558398127555847,0.026446212083101273
1672829361958312200,16.056312255859375,9.887618064880371,0.2839116156101227,0.03602812811732292
1672829361968258300,16.06625830078125,9.212093353271484,0.29828450083732605,0.11747439205646515
1672829361978204200,16.0762041015625,10.098420143127441,0.1928834617137909,0.3234855532646179
1672829361988150300,16.086150390625,9.030036926269531,-0.0035457871854305267,0.663643479347229
1672829361998096100,16.09609619140625,10.38587760925293,-0.31974896788597107,1.4589424133300781
1672829362008042200,16.106042236328125,8.785697937011719,-0.30058515071868896,1.8470098972320557
1672829362017988000,16.115988037109375,8.694669723510742,-0.37724044919013977,1.238558292388916
1672829362027934200,16.125934326171876,8.167664527893066,-0.04666439816355705,0.4720052182674408
1672829362037880000,16.135880126953126,7.338828086853027,0.0970643162727356,-0.16998302936553955
1672829362047826200,16.145826171875,6.989088535308838,-0.0370824858546257,-1.008400559425354
1672829362057772000,16.15577197265625,17.14112663269043,0.34140312671661377,-1.008400559425354
1672829362067718100,16.16571826171875,12.608881950378418,-0.33412182331085205,0.8840274810791016
1672829362077664000,16.1756640625,9.346240043640137,-0.8132175207138062,1.8422188758850098
1672829362087610000,16.185610107421876,9.834917068481445,-0.1903931051492691,0.5390785932540894
1672829362097556000,16.195555908203126,9.964273452758789,-0.12331971526145935,-0.021463360637426376
1672829362107502000,16.205502197265623,9.480386734008789,-0.0370824858546257,-0.5245139002799988
1672829362117448200,16.2154482421875,10.141538619995117,0.5522052049636841,-1.750998854637146
1672829362127394000,16.22539404296875,9.715143203735352,0.8444536328315735,-2.2636313438415527
1672829362137340200,16.235340087890624,10.007391929626465,0.7007248997688293,-1.918682336807251
1672829362147286000,16.2452861328125,9.815753936767578,-0.11852875351905823,0.29473981261253357
1672829362157232000,16.255232177734374,9.672024726867676,-0.0562463141977787,0.021655255928635597
1672829362167178000,16.265177978515624,9.878035545349121,-0.08978301286697388,0.002491425722837448
1672829362177124000,16.2751240234375,9.787008285522461,-0.12331971526145935,0.040819086134433746
1672829362187070000,16.285070068359374,9.959482192993164,-0.14727449417114258,0.07435578107833862
1672829362197016000,16.29501611328125,9.820544242858887,-0.12811066210269928,0.05998291075229645
1672829362206962000,16.3049619140625,9.787008285522461,-0.07061918079853058,0.05519195646047592
1672829362216908000,16.314907958984374,9.787008285522461,-0.03229152783751488,0.031237170100212097
1672829362226854000,16.32485400390625,9.80138111114502,-0.022709615528583527,0.05519195646047592
1672829362236800000,16.334800048828125,9.882826805114746,-0.051455359905958176,0.09831057488918304
1672829362246745900,16.344745849609374,9.834917068481445,-0.1329016238451004,0.09831057488918304
1672829362256692000,16.35469189453125,9.83970832824707,-0.16164736449718475,0.05998291075229645
1672829362266637800,16.364637939453125,9.782217025756836,-0.1520654559135437,0.016864299774169922
1672829362276584000,16.374583984375,9.830126762390137,-0.11852875351905823,0.012073341757059097
1672829362286529800,16.38452978515625,9.863662719726562,-0.08020110428333282,0.05519195646047592
1672829362296476000,16.394475830078125,9.878035545349121,-0.0370824858546257,0.0695648267865181
1672829362306421800,16.404421875,9.834917068481445,-0.0562463141977787,0.06477387249469757
1672829362316368000,16.414367919921876,9.787008285522461,-0.10415588319301605,0.016864299774169922
1672829362326313700,16.424313720703125,9.882826805114746,-0.17602023482322693,0.007282383739948273
1672829362336259800,16.434259765625,9.724725723266602,-0.17602023482322693,0.031237170100212097
1672829362346206000,16.4442060546875,9.834917068481445,-0.10894684493541718,0.0504009984433651
1672829362356151800,16.45415185546875,9.834917068481445,-0.0562463141977787,0.021655255928635597
1672829362366098000,16.464097900390627,9.782217025756836,-0.02750057354569435,0.031237170100212097
1672829362376043800,16.474043701171876,9.825335502624512,-0.0754101425409317,0.0695648267865181
1672829362385990000,16.483989990234374,9.897199630737305,-0.08978301286697388,0.11747439205646515
1672829362395935700,16.493935791015623,9.897199630737305,-0.17602023482322693,-0.11249153316020966
1672829362405881900,16.5038818359375,9.442058563232422,-0.1137377917766571,0.22766640782356262
1672829362415827700,16.51382763671875,10.141538619995117,-0.14248353242874146,-0.016672398895025253
1672829362425773800,16.52377392578125,9.547459602355957,-0.09936492145061493,0.1078924834728241
1672829362435719700,16.5337197265625,9.997810363769531,-0.0370824858546257,0.002491425722837448
1672829362445665800,16.543665771484374,9.748680114746094,-0.03229152783751488,0.0695648267865181
1672829362455611600,16.553611572265623,9.849289894104004,-0.07061918079853058,0.04561004042625427
1672829362465557800,16.563557861328125,9.83970832824707,-0.1137377917766571,0.04561004042625427
1672829362475503600,16.573503662109374,9.815753936767578,-0.14727449417114258,0.026446212083101273
1672829362485449700,16.58344970703125,9.834917068481445,-0.13769258558750153,0.016864299774169922
1672829362495395600,16.5933955078125,9.815753936767578,-0.1137377917766571,0.031237170100212097
1672829362505341700,16.603341796875,9.83970832824707,-0.0754101425409317,0.03602812811732292
1672829362515287600,16.61328759765625,9.83970832824707,-0.051455359905958176,0.05998291075229645
1672829362525233700,16.623233642578125,9.820544242858887,-0.04666439816355705,0.0504009984433651
1672829362535179500,16.633179443359374,9.830126762390137,-0.094573974609375,0.03602812811732292
1672829362545125600,16.643125732421876,9.80138111114502,-0.12331971526145935,0.026446212083101273
1672829362555071500,16.653071533203125,9.83970832824707,-0.14248353242874146,0.031237170100212097
1672829362565017600,16.663017578125,9.834917068481445,-0.14727449417114258,0.040819086134433746
1672829362574963700,16.672963623046876,9.825335502624512,-0.10415588319301605,0.040819086134433746
1672829362584909600,16.68290966796875,9.834917068481445,-0.0562463141977787,0.04561004042625427
1672829362594855700,16.692855712890626,9.806171417236328,-0.051455359905958176,0.04561004042625427
1672829362604801800,16.7028017578125,9.834917068481445,-0.0562463141977787,0.03602812811732292
1672829362614747600,16.71274755859375,9.830126762390137,-0.09936492145061493,0.031237170100212097
1672829362624693800,16.72269384765625,9.849289894104004,-0.14248353242874146,0.03602812811732292
1672829362634640000,16.732639892578124,9.815753936767578,-0.15685640275478363,0.03602812811732292
1672829362644586000,16.7425859375,9.844499588012695,-0.13769258558750153,0.031237170100212097
1672829362654531800,16.75253173828125,9.806171417236328,-0.08499205112457275,0.03602812811732292
1672829362664478000,16.76247802734375,9.825335502624512,-0.04666439816355705,0.04561004042625427
1672829362674424000,16.772424072265625,9.83970832824707,-0.041873443871736526,0.05998291075229645
1672829362684370200,16.7823701171875,9.820544242858887,-0.06103726848959923,0.04561004042625427
1672829362694316000,16.79231591796875,9.834917068481445,-0.08978301286697388,0.031237170100212097
1672829362704262100,16.80226220703125,9.834917068481445,-0.12811066210269928,0.026446212083101273
1672829362714208300,16.812208251953123,9.834917068481445,-0.14248353242874146,0.03602812811732292
1672829362724154000,16.822154052734376,9.820544242858887,-0.12811066210269928,0.026446212083101273
1672829362734100200,16.832100341796874,9.80138111114502,-0.08978301286697388,0.031237170100212097
1672829362744046300,16.84204638671875,9.83970832824707,-0.07061918079853058,0.040819086134433746
1672829362753992400,16.851992431640625,9.830126762390137,-0.06103726848959923,0.0504009984433651
1672829362763938300,16.861938232421874,9.782217025756836,-0.08499205112457275,0.040819086134433746
1672829362773884400,16.871884521484375,9.868453979492188,-0.1137377917766571,0.026446212083101273
1672829362783830500,16.88183056640625,9.878035545349121,-0.1329016238451004,0.04561004042625427
1672829362793776400,16.8917763671875,9.834917068481445,-0.1329016238451004,0.0504009984433651
1672829362803722500,16.901722412109375,9.844499588012695,-0.094573974609375,0.040819086134433746
1672829362813668600,16.911668701171877,9.796589851379395,-0.051455359905958176,0.021655255928635597
1672829362823614700,16.92161474609375,9.83970832824707,-0.0370824858546257,0.03602812811732292
1672829362833560600,16.931560546875,9.80138111114502,-0.051455359905958176,0.0504009984433651
1672829362843506700,16.941506591796873,9.834917068481445,-0.09936492145061493,0.0504009984433651
1672829362853452800,16.951452880859375,9.854081153869629,-0.1329016238451004,0.031237170100212097
1672829362863399000,16.96139892578125,9.815753936767578,-0.14248353242874146,0.021655255928635597
1672829362873344800,16.9713447265625,9.820544242858887,-0.12811066210269928,0.016864299774169922
1672829362883291000,16.981290771484375,9.834917068481445,-0.094573974609375,0.031237170100212097
1672829362893237000,16.991237060546876,9.830126762390137,-0.06103726848959923,0.05519195646047592
1672829362903182800,17.001182861328125,9.83970832824707,-0.04666439816355705,0.05998291075229645
1672829362913129000,17.01112890625,9.83970832824707,-0.07061918079853058,0.04561004042625427
1672829362923075000,17.021074951171876,9.810962677001953,-0.10415588319301605,0.031237170100212097
1672829362933021200,17.031021240234374,9.834917068481445,-0.1329016238451004,0.016864299774169922
1672829362942967000,17.040967041015627,9.882826805114746,-0.1137377917766571,0.03602812811732292
1672829362952913200,17.0509130859375,9.767844200134277,-0.09936492145061493,0.040819086134433746
1672829362962859000,17.06085888671875,9.887618064880371,-0.0754101425409317,0.0504009984433651
1672829362972805000,17.07080517578125,9.796589851379395,-0.06103726848959923,0.0504009984433651
1672829362982751000,17.0807509765625,9.815753936767578,-0.0754101425409317,0.040819086134433746
1672829362992697000,17.090697021484374,9.844499588012695,-0.10415588319301605,0.021655255928635597
1672829363002643000,17.100642822265623,9.80138111114502,-0.13769258558750153,0.031237170100212097
1672829363012589000,17.110589111328125,9.892409324645996,-0.13769258558750153,0.04561004042625427
1672829363022535000,17.120534912109374,9.815753936767578,-0.11852875351905823,0.031237170100212097
1672829363032481000,17.13048095703125,9.810962677001953,-0.08499205112457275,0.031237170100212097
1672829363042427000,17.140427001953125,9.844499588012695,-0.051455359905958176,0.031237170100212097
1672829363052373000,17.150373046875,9.815753936767578,-0.041873443871736526,0.05519195646047592
1672829363062318800,17.16031884765625,9.854081153869629,-0.07061918079853058,0.05998291075229645
1672829363072265000,17.170264892578125,9.830126762390137,-0.10894684493541718,0.03602812811732292
1672829363082210800,17.1802109375,9.868453979492188,-0.12811066210269928,0.012073341757059097
1672829363092157000,17.190156982421875,9.854081153869629,-0.12331971526145935,0.012073341757059097
1672829363102103000,17.20010302734375,9.777425765991211,-0.09936492145061493,0.040819086134433746
1672829363112049000,17.210048828125,9.825335502624512,-0.08020110428333282,0.05519195646047592
1672829363121995000,17.2199951171875,9.825335502624512,-0.07061918079853058,0.06477387249469757
1672829363131940900,17.22994091796875,9.830126762390137,-0.08020110428333282,0.0504009984433651
1672829363141887000,17.239886962890626,9.83970832824707,-0.09936492145061493,0.03602812811732292
1672829363151832800,17.249832763671876,9.830126762390137,-0.10894684493541718,0.03602812811732292
1672829363161779000,17.259779052734373,9.849289894104004,-0.1137377917766571,0.040819086134433746
1672829363171724800,17.269724853515626,9.854081153869629,-0.10415588319301605,0.03602812811732292
1672829363181671000,17.2796708984375,9.83970832824707,-0.08978301286697388,0.040819086134433746
1672829363191616800,17.28961669921875,9.844499588012695,-0.08020110428333282,0.040819086134433746
1672829363201563000,17.29956298828125,9.815753936767578,-0.08978301286697388,0.03602812811732292
1672829363211508700,17.3095087890625,9.83970832824707,-0.09936492145061493,0.03602812811732292
1672829363221454800,17.319454833984373,9.83970832824707,-0.10894684493541718,0.040819086134433746
1672829363231400700,17.329400634765626,9.849289894104004,-0.1137377917766571,0.04561004042625427
1672829363241346800,17.339346923828124,9.83970832824707,-0.094573974609375,0.04561004042625427
1672829363251293000,17.34929296875,9.868453979492188,-0.08978301286697388,0.026446212083101273
1672829363261238800,17.35923876953125,9.782217025756836,-0.0754101425409317,0.0504009984433651
1672829363271185000,17.369184814453124,9.892409324645996,-0.08499205112457275,0.040819086134433746
1672829363281131000,17.379131103515626,9.810962677001953,-0.09936492145061493,0.05519195646047592
1672829363291077000,17.3890771484375,9.863662719726562,-0.10894684493541718,0.03602812811732292
1672829363301023200,17.399023193359376,9.796589851379395,-0.10415588319301605,0.031237170100212097
1672829363310969600,17.408969482421874,9.854081153869629,-0.094573974609375,0.021655255928635597
1672829363320915500,17.41891552734375,9.834917068481445,-0.08499205112457275,0.03602812811732292
1672829363330861600,17.428861572265625,9.844499588012695,-0.08020110428333282,0.05519195646047592
1672829363340807400,17.438807373046874,9.854081153869629,-0.08020110428333282,0.05519195646047592
1672829363350753500,17.44875341796875,9.820544242858887,-0.094573974609375,0.0504009984433651
1672829363360699600,17.45869970703125,9.83970832824707,-0.10415588319301605,0.040819086134433746
1672829363370645500,17.4686455078125,9.849289894104004,-0.094573974609375,0.03602812811732292
1672829363380591400,17.47859130859375,9.834917068481445,-0.08978301286697388,0.03602812811732292
1672829363390537200,17.488537109375,9.854081153869629,-0.08499205112457275,0.040819086134433746
1672829363400488000,17.498488037109375,9.849289894104004,-0.08978301286697388,0.0504009984433651
1672829363410444000,17.508444091796875,9.83970832824707,-0.094573974609375,0.07435578107833862
1672829363420405800,17.51840576171875,9.873245239257812,-0.2718393802642822,0.7259259223937988
1672829363430321700,17.52832177734375,9.796589851379395,-0.7700989246368408,1.5882982015609741
1672829363440238800,17.53823876953125,9.863662719726562,-0.9952739477157593,1.4876880645751953
1672829363450158300,17.548158447265624,9.830126762390137,-0.7221893668174744,1.1906487941741943
1672829363460081200,17.5580810546875,9.854081153869629,-0.5976244807243347,0.6828073263168335
1672829363470007800,17.5680078125,9.873245239257812,-0.3628675937652588,0.35223129391670227
1672829363479939300,17.577939208984375,9.80138111114502,-0.1903931051492691,0.021655255928635597
1672829363489875700,17.587875732421875,9.868453979492188,-0.008336743339896202,0.13184726238250732
1672829363499817500,17.5978173828125,9.810962677001953,0.0395728275179863,0.19892066717147827
1672829363509764600,17.6077646484375,9.858872413635254,-0.0035457871854305267,0.36660417914390564
1672829363519716400,17.61771630859375,9.80138111114502,-0.171229287981987,0.5438695549964905
1672829363529673000,17.6276728515625,9.882826805114746,-0.2862122654914856,0.6780163645744324
1672829363539633400,17.63763330078125,9.825335502624512,-0.386822372674942,0.663643479347229
1672829363549597000,17.647596923828125,9.834917068481445,-0.4395228922367096,0.5869881510734558
1672829363559562800,17.657562744140623,9.83970832824707,-0.37724044919013977,0.495959997177124
1672829363569530000,17.667530029296874,9.844499588012695,-0.3820314109325409,0.4336775839328766
1672829363579498000,17.677498046875,9.868453979492188,-0.37724044919013977,0.2659940719604492
1672829363589458000,17.6874580078125,9.810962677001953,-0.4203590750694275,0.33306747674942017
1672829363599404000,17.697404052734374,9.858872413635254,-0.4395228922367096,0.495959997177124
1672829363609350000,17.707349853515623,9.854081153869629,-0.5113872289657593,0.6828073263168335
1672829363619296000,17.7172958984375,9.825335502624512,-0.607206404209137,0.802581250667572
1672829363629241900,17.727241943359374,9.906782150268555,-0.5257601141929626,0.6923892498016357
1672829363639188000,17.73718798828125,9.743888854980469,-0.5592968463897705,0.7163439989089966
1672829363649134000,17.747134033203125,9.906782150268555,-0.44910481572151184,0.6540615558624268
1672829363659080000,17.757079833984374,9.80138111114502,-0.4443138539791107,0.563033401966095
1672829363669026000,17.767026123046875,9.849289894104004,-0.3964042663574219,0.35223129391670227
1672829363678972000,17.776971923828125,9.796589851379395,-0.3820314109325409,-0.002299528568983078
1672829363688918000,17.78691796875,9.911572456359863,-0.3628675937652588,-0.13644632697105408
1672829363698863900,17.79686376953125,9.777425765991211,-0.3676585257053375,-0.20831069350242615
1672829363708810000,17.80681005859375,9.882826805114746,-0.3484947085380554,-0.1220734566450119
1672829363718755800,17.816755859375,9.80138111114502,-0.3820314109325409,0.040819086134433746
1672829363728702000,17.826701904296876,9.815753936767578,-0.4203590750694275,0.20850259065628052
1672829363738647800,17.836647705078125,9.887618064880371,-0.44910481572151184,0.42888662219047546
1672829363748594000,17.846593994140626,9.806171417236328,-0.5065962672233582,0.44325947761535645
1672829363758539800,17.856539794921876,9.844499588012695,-0.401195228099823,0.34744033217430115
1672829363768486000,17.86648583984375,9.854081153869629,-0.2095569372177124,0.2803669273853302
1672829363778431700,17.876431640625,9.782217025756836,-0.09936492145061493,0.1845477968454361
1672829363788377900,17.8863779296875,9.868453979492188,0.010827085003256798,0.040819086134433746
1672829363798323700,17.89632373046875,9.83970832824707,-0.0370824858546257,0.21329353749752045
1672829363808269800,17.906269775390626,9.854081153869629,-0.15685640275478363,0.21808449923992157
1672829363818215700,17.916215576171876,9.806171417236328,-0.37724044919013977,0.19412972033023834
1672829363828161800,17.926161865234373,9.878035545349121,-0.5305510759353638,0.20850259065628052
1672829363838107600,17.936107666015626,9.83970832824707,-0.5784606337547302,0.09351961314678192
1672829363848053800,17.9460537109375,9.897199630737305,-0.5257601141929626,-0.026254314929246902
1672829363857999600,17.95599951171875,9.849289894104004,-0.3484947085380554,-0.30412980914115906
1672829363867945700,17.96594580078125,9.79179859161377,-0.171229287981987,-0.6251239776611328
1672829363877891800,17.975891845703124,9.863662719726562,-0.0370824858546257,-0.701779305934906
1672829363887837700,17.985837646484374,9.83970832824707,0.0587366558611393,-0.7592707872390747
1672829363897783800,17.99578369140625,9.80138111114502,0.04436378553509712,-0.7784345746040344
1672829363907729700,18.005729736328124,9.897199630737305,-0.094573974609375,-0.5915873050689697
1672829363917675800,18.01567578125,9.844499588012695,-0.2287207692861557,-0.4143218398094177
1672829363927621600,18.02562158203125,9.815753936767578,-0.2478845864534378,-0.2993388772010803
1672829363937567700,18.035567626953124,9.825335502624512,-0.2862122654914856,-0.10770058631896973
1672829363947513600,18.045513671875,9.830126762390137,-0.2718393802642822,0.19412972033023834
1672829363957459700,18.055459716796875,9.767844200134277,-0.26225748658180237,0.46242332458496094
1672829363967405600,18.065405517578125,9.825335502624512,-0.3053760826587677,0.6253158450126648
1672829363977351700,18.0753515625,9.94031810760498,-0.2814213037490845,0.5726152658462524
1672829363987297800,18.0852978515625,9.777425765991211,-0.2814213037490845,0.4672142565250397
1672829363997244000,18.095243896484376,9.830126762390137,-0.20476597547531128,0.2995307743549347
1672829364007189800,18.105189697265626,9.969063758850098,-0.094573974609375,0.07435578107833862
1672829364017135900,18.115135986328124,9.787008285522461,-0.051455359905958176,-0.016672398895025253
1672829364027082000,18.12508203125,9.748680114746094,-0.0035457871854305267,-0.2562202513217926
1672829364037028000,18.135028076171874,9.858872413635254,0.010827085003256798,-0.3185026943683624
1672829364046974000,18.144973876953124,9.796589851379395,0.006036127917468548,-0.2993388772010803
1672829364056920000,18.154920166015625,10.016973495483398,0.03478186950087547,-0.42390376329421997
1672829364066866200,18.1648662109375,9.643279075622559,-0.08978301286697388,-0.47181329131126404
1672829364076812000,18.17481201171875,9.849289894104004,-0.16164736449718475,-0.6586606502532959
1672829364086758100,18.184758056640625,9.796589851379395,-0.1903931051492691,-0.8071803450584412
1672829364096704300,18.194704345703126,9.772634506225586,-0.20476597547531128,-0.8359261155128479
1672829364106650400,18.204650390625,9.921154975891113,-0.19518406689167023,-0.80238938331604
1672829364116596200,18.21459619140625,9.854081153869629,-0.18560215830802917,-0.6730335354804993
1672829364126542300,18.224542236328126,9.878035545349121,-0.14727449417114258,-0.5915873050689697
1672829364136488400,18.234488525390624,9.83970832824707,-0.18081119656562805,-0.3855760991573334
1672829364146434300,18.244434326171874,9.810962677001953,-0.16643832623958588,-0.33766651153564453
1672829364156380400,18.25438037109375,9.854081153869629,-0.1329016238451004,-0.6442878246307373
1672829364166326500,18.264326416015624,9.834917068481445,-0.18560215830802917,-0.6874064207077026
1672829364176272600,18.274272705078126,9.882826805114746,-0.15685640275478363,-0.7448979020118713
1672829364186218500,18.284218505859375,9.80138111114502,-0.13769258558750153,-0.6538697481155396
1672829364196164600,18.29416455078125,9.830126762390137,-0.23830269277095795,-0.4095308780670166
1672829364206110700,18.30411083984375,9.863662719726562,-0.4970144033432007,0.3570222556591034
1672829364216056800,18.314056884765623,9.79179859161377,-0.5784606337547302,0.802581250667572
1672829364226002700,18.324002685546876,10.016973495483398,-0.3628675937652588,0.5582424402236938
1672829364235948800,18.33394873046875,9.772634506225586,-0.11852875351905823,-0.03104526922106743
1672829364245895000,18.34389501953125,9.763052940368652,0.08748239278793335,-0.32329365611076355
1672829364255840800,18.3538408203125,9.748680114746094,0.24558398127555847,-0.4670223891735077
1672829364265787000,18.363786865234374,9.887618064880371,0.3222392797470093,-0.4478585422039032
1672829364275733000,18.37373291015625,9.825335502624512,0.24079303443431854,-0.27059313654899597
1672829364285679000,18.38367919921875,9.820544242858887,0.16892866790294647,-0.011881444603204727
1672829364295625000,18.393625,9.868453979492188,0.13060101866722107,0.0887286514043808
1672829364305571000,18.403571044921875,9.854081153869629,0.04915474355220795,0.1270563155412674
1672829364315517200,18.41351708984375,9.825335502624512,-0.10415588319301605,0.14142918586730957
1672829364325463300,18.42346337890625,9.815753936767578,-0.20476597547531128,0.2803669273853302
1672829364335409200,18.4334091796875,9.882826805114746,-0.2095569372177124,0.3426493704319
1672829364345355300,18.443355224609373,9.810962677001953,-0.26225748658180237,0.3043217360973358
1672829364355301400,18.45330126953125,9.80138111114502,-0.2814213037490845,0.4720052182674408
1672829364365247200,18.463247314453124,9.858872413635254,-0.2910032272338867,0.6684344410896301
1672829364375193300,18.473193359375,9.854081153869629,-0.26225748658180237,0.7259259223937988
1672829364385139500,18.483139404296875,9.878035545349121,-0.07061918079853058,0.37139514088630676
1672829364395085600,18.49308544921875,9.925945281982422,0.21683824062347412,0.10310152173042297
1672829364405031400,18.503031494140625,9.705561637878418,0.379730761051178,0.17496588826179504
1672829364414977500,18.5129775390625,9.724725723266602,0.17851059138774872,0.19892066717147827
1672829364424923600,18.522923583984376,9.849289894104004,0.06831857562065125,0.21329353749752045
1672829364434869800,18.532869873046874,9.858872413635254,0.15934675931930542,0.30911269783973694
1672829364444815600,18.542815673828127,9.830126762390137,0.21683824062347412,0.4767961800098419
1672829364454761700,18.55276171875,9.930736541748047,0.3030754625797272,0.40493181347846985
1672829364464707800,18.562707763671874,9.767844200134277,0.24079303443431854,0.38576799631118774
1672829364474653700,18.57265380859375,9.90199089050293,-0.10415588319301605,0.6444796323776245
1672829364484599800,18.582599853515624,9.80138111114502,-0.4443138539791107,0.8169541358947754
1672829364494546000,18.5925458984375,9.887618064880371,-0.5736696720123291,0.7929993271827698
1672829364504492000,18.602491943359375,9.849289894104004,-0.44910481572151184,0.39055895805358887
1672829364514438000,18.61243798828125,9.734307289123535,-0.06103726848959923,-0.30412980914115906
1672829364524384000,18.622384033203126,9.863662719726562,0.35577598214149475,-0.8119713068008423
1672829364534330000,18.632330078125,9.69118881225586,0.3270302414894104,-0.8934175968170166
1672829364544276000,18.64227587890625,9.925945281982422,0.20246537029743195,-0.6107510924339294
1672829364554222000,18.65222216796875,10.0648832321167,-0.10415588319301605,0.1462201476097107
1672829364564168200,18.662168212890624,9.672024726867676,-0.23351173102855682,0.5390785932540894
1672829364574114300,18.6721142578125,9.983436584472656,-0.12331971526145935,0.4528414011001587
1672829364584060200,18.68206005859375,9.695980072021484,-0.041873443871736526,0.13663822412490845
1672829364594006300,18.69200634765625,9.964273452758789,-0.04666439816355705,0.026446212083101273
1672829364603952400,18.701952392578125,9.777425765991211,-0.022709615528583527,-0.1987287700176239
1672829364613898500,18.7118984375,9.767844200134277,-0.1137377917766571,-0.026254314929246902
1672829364623844400,18.72184423828125,9.844499588012695,-0.13769258558750153,0.05998291075229645
1672829364633790500,18.73179052734375,9.820544242858887,-0.0562463141977787,0.012073341757059097
1672829364643736600,18.741736572265626,9.887618064880371,0.05394569784402847,-0.05500005558133125
1672829364653682400,18.751682373046876,9.715143203735352,0.03478186950087547,-0.016672398895025253
1672829364663628500,18.761628662109374,9.964273452758789,-0.041873443871736526,-0.08853675425052643
1672829364673574700,18.77157470703125,9.854081153869629,-0.2910032272338867,0.5342876315116882
1672829364683520800,18.781520751953124,9.815753936767578,-0.4395228922367096,1.2146035432815552
1672829364693466600,18.791466552734374,9.777425765991211,-0.2910032272338867,1.1283663511276245
1672829364703412700,18.801412841796875,9.911572456359863,-0.04666439816355705,0.8121631741523743
1672829364713358800,18.81135888671875,9.858872413635254,0.14976485073566437,0.007282383739948273
1672829364723305000,18.821304931640626,9.748680114746094,0.2695387601852417,-0.6011691689491272
1672829364733250800,18.831250732421875,9.868453979492188,0.3030754625797272,-1.176084041595459
1672829364743197000,18.841197021484376,9.743888854980469,0.46596798300743103,-1.693507432937622
1672829364753143000,18.85114306640625,9.90199089050293,0.14018292725086212,-1.8707728385925293
1672829364763089000,18.8610888671875,9.820544242858887,-0.2862122654914856,-1.4827053546905518
1672829364773035000,18.871034912109376,9.858872413635254,-0.4395228922367096,-0.9604909420013428
1672829364782981000,18.880981201171874,9.815753936767578,-0.2670484483242035,-0.7784345746040344
1672829364792927200,18.89092724609375,9.834917068481445,-0.08499205112457275,-0.5676324963569641
1672829364802873000,18.900873046875,9.820544242858887,0.04436378553509712,-0.4478585422039032
1672829364812819200,18.910819091796874,9.849289894104004,0.11143718659877777,-0.5772144198417664
1672829364822765300,18.920765380859375,9.834917068481445,0.0970643162727356,-0.6538697481155396
1672829364832711400,18.93071142578125,9.830126762390137,0.0779004842042923,-0.3472484350204468
1672829364842657300,18.9406572265625,9.830126762390137,0.11143718659877777,-0.13644632697105408
1672829364852603400,18.950603271484376,9.858872413635254,0.025199957191944122,0.14142918586730957
1672829364862549500,18.960549560546873,9.825335502624512,0.029990913346409798,0.14142918586730957
1672829364872495400,18.970495361328126,9.844499588012695,0.029990913346409798,0.11268344521522522
1672829364882441500,18.98044140625,9.858872413635254,0.04436378553509712,0.0695648267865181
1672829364892387600,18.9903876953125,9.849289894104004,0.0587366558611393,0.040819086134433746
1672829364902333700,19.000333740234375,9.873245239257812,0.04915474355220795,0.016864299774169922
1672829364912279600,19.010279541015624,9.844499588012695,0.04915474355220795,0.04561004042625427
1672829364922225700,19.0202255859375,9.844499588012695,0.0395728275179863,0.09831057488918304
1672829364932171800,19.030171875,9.834917068481445,0.029990913346409798,0.15101109445095062
1672829364942118000,19.040117919921876,9.825335502624512,0.025199957191944122,0.17975685000419617
1672829364952063700,19.050063720703125,9.830126762390137,0.025199957191944122,0.15580205619335175
1672829364962009900,19.060009765625,9.844499588012695,0.03478186950087547,0.1078924834728241
1672829364971956000,19.0699560546875,9.830126762390137,0.0587366558611393,0.05519195646047592
1672829364981901800,19.07990185546875,9.834917068481445,0.0587366558611393,0.031237170100212097
1672829364991848000,19.089847900390627,9.834917068481445,0.05394569784402847,0.0504009984433651
1672829365001794000,19.0997939453125,9.825335502624512,0.04436378553509712,0.0887286514043808
1672829365011740200,19.109740234375,9.80138111114502,0.0395728275179863,0.14142918586730957
1672829365021686000,19.11968603515625,9.834917068481445,0.015618042089045048,0.17017492651939392
1672829365031632100,19.129632080078125,9.90199089050293,0.015618042089045048,0.14142918586730957
1672829365041578200,19.139578125,9.94031810760498,0.020408999174833298,0.09831057488918304
1672829365051524000,19.149524169921875,9.758261680603027,0.04915474355220795,0.0695648267865181
1672829365061470200,19.15947021484375,9.83970832824707,0.0587366558611393,0.05519195646047592
1672829365071416300,19.169416259765626,9.815753936767578,0.04915474355220795,0.07914674282073975
1672829365081362400,19.179362548828124,9.83970832824707,0.04915474355220795,0.1078924834728241
1672829365091308300,19.189308349609377,9.849289894104004,0.0395728275179863,0.13184726238250732
1672829365101254400,19.19925439453125,9.825335502624512,0.0395728275179863,0.13184726238250732
1672829365111200500,19.209200439453124,9.854081153869629,0.03478186950087547,0.1078924834728241
1672829365121147400,19.2191474609375,9.825335502624512,0.020408999174833298,0.09351961314678192
1672829365131094500,19.229094482421875,9.834917068481445,0.0395728275179863,0.07435578107833862
1672829365141041200,19.239041259765624,9.810962677001953,0.04436378553509712,0.09351961314678192
1672829365150987000,19.248987060546874,9.834917068481445,0.04436378553509712,0.09831057488918304
1672829365160932900,19.258932861328127,9.863662719726562,0.04436378553509712,0.12226535379886627
1672829365170878700,19.268878662109376,9.820544242858887,0.020408999174833298,0.13184726238250732
1672829365180824600,19.278824462890626,9.83970832824707,0.029990913346409798,0.12226535379886627
1672829365190770400,19.2887705078125,9.849289894104004,0.0395728275179863,0.09831057488918304
1672829365200716500,19.298716552734376,9.83970832824707,0.04436378553509712,0.0887286514043808
1672829365210662400,19.308662353515626,9.834917068481445,0.04915474355220795,0.07914674282073975
1672829365220608000,19.31860791015625,9.820544242858887,0.0395728275179863,0.08393769711256027
1672829365230554000,19.32855419921875,9.83970832824707,0.029990913346409798,0.1078924834728241
1672829365240506000,19.338506103515623,9.959482192993164,0.03478186950087547,0.0887286514043808
1672829365250446000,19.348446044921875,9.772634506225586,0.0395728275179863,0.13184726238250732
1672829365260397800,19.358397705078126,9.83970832824707,0.0395728275179863,0.10310152173042297
1672829365270355000,19.36835498046875,9.83970832824707,0.0395728275179863,0.0887286514043808
1672829365280284200,19.3782841796875,9.844499588012695,0.04436378553509712,0.09351961314678192
1672829365290214100,19.388214111328125,9.844499588012695,0.05394569784402847,0.09351961314678192
1672829365300145400,19.3981455078125,9.834917068481445,0.0395728275179863,0.10310152173042297
1672829365310078500,19.408078369140625,9.810962677001953,0.03478186950087547,0.1078924834728241
1672829365320013800,19.418013916015624,9.815753936767578,0.03478186950087547,0.1078924834728241
1672829365329951500,19.427951416015624,9.810962677001953,0.0395728275179863,0.1078924834728241
1672829365339892200,19.437892333984376,9.854081153869629,0.0395728275179863,0.09831057488918304
1672829365349835800,19.447835693359377,9.849289894104004,0.05394569784402847,0.08393769711256027
1672829365359782400,19.457782470703126,9.806171417236328,0.04436378553509712,0.09831057488918304
1672829365369731600,19.467731689453124,9.806171417236328,0.0395728275179863,0.11268344521522522
1672829365379683300,19.477683349609375,9.863662719726562,0.04915474355220795,0.1078924834728241
1672829365389637400,19.487637451171874,9.79179859161377,0.0395728275179863,0.1270563155412674
1672829365399593200,19.49759326171875,9.892409324645996,0.029990913346409798,0.10310152173042297
1672829365409550300,19.50755029296875,9.825335502624512,0.04436378553509712,0.09831057488918304
1672829365419508200,19.51750830078125,9.83970832824707,0.0395728275179863,0.09351961314678192
1672829365429466600,19.527466552734374,9.887618064880371,0.0395728275179863,0.05998291075229645
1672829365439421200,19.537421142578125,9.834917068481445,0.05394569784402847,0.05998291075229645
1672829365449367300,19.5473671875,9.815753936767578,0.05394569784402847,0.07435578107833862
1672829365459313200,19.557313232421876,9.830126762390137,0.0395728275179863,0.09831057488918304
1672829365469259300,19.56725927734375,9.83970832824707,0.03478186950087547,0.13663822412490845
1672829365479205400,19.577205322265623,9.806171417236328,0.03478186950087547,0.14142918586730957
1672829365489151200,19.587151123046876,9.782217025756836,0.025199957191944122,0.13184726238250732
1672829365499097300,19.597097412109374,9.844499588012695,0.04436378553509712,0.11268344521522522
1672829365509043500,19.60704345703125,9.83970832824707,0.05394569784402847,0.09351961314678192
1672829365518989600,19.616989501953125,9.825335502624512,0.05394569784402847,0.08393769711256027
1672829365528935400,19.626935302734374,9.844499588012695,0.04436378553509712,0.08393769711256027
1672829365538881500,19.636881591796875,9.858872413635254,0.04436378553509712,0.0887286514043808
1672829365548827600,19.64682763671875,9.858872413635254,0.03478186950087547,0.0887286514043808
1672829365558773800,19.656773681640626,9.844499588012695,0.03478186950087547,0.09351961314678192
1672829365568719600,19.6667197265625,9.873245239257812,0.04436378553509712,0.08393769711256027
1672829365578665700,19.676665771484377,9.849289894104004,0.04436378553509712,0.09351961314678192
1672829365588611800,19.68661181640625,9.80138111114502,0.04915474355220795,0.09351961314678192
1672829365598557700,19.6965576171875,9.79179859161377,0.03478186950087547,0.10310152173042297
1672829365608503800,19.70650390625,9.844499588012695,0.04915474355220795,0.09831057488918304
1672829365618450000,19.716449951171874,9.878035545349121,0.04436378553509712,0.09831057488918304
1672829365628396000,19.72639599609375,9.83970832824707,0.0395728275179863,0.09831057488918304
1672829365638342000,19.736341796875,9.849289894104004,0.0395728275179863,0.09831057488918304
1672829365648288000,19.7462880859375,9.815753936767578,0.0395728275179863,0.09351961314678192
1672829365658234000,19.756234130859376,9.825335502624512,0.04915474355220795,0.07914674282073975
1672829365668180200,19.76618017578125,9.854081153869629,0.05394569784402847,0.0887286514043808
1672829365678126000,19.7761259765625,9.830126762390137,0.04436378553509712,0.09351961314678192
1672829365688072200,19.786072265625,9.83970832824707,0.0395728275179863,0.10310152173042297
1672829365698018300,19.796018310546874,9.820544242858887,0.04436378553509712,0.0887286514043808
1672829365707964200,19.805964111328127,9.834917068481445,0.03478186950087547,0.0887286514043808
1672829365717910300,19.81591015625,9.83970832824707,0.0395728275179863,0.0887286514043808
1672829365727856400,19.8258564453125,9.796589851379395,0.1545557975769043,-0.9125813841819763
1672829365737802500,19.835802490234375,9.90199089050293,0.19767440855503082,-1.6839255094528198
1672829365747748400,19.845748291015624,9.806171417236328,-0.10894684493541718,-1.1904568672180176
1672829365757694500,19.855694580078126,9.806171417236328,-0.30058515071868896,-0.9892367124557495
1672829365767640600,19.865640625,9.887618064880371,-0.2095569372177124,-0.9748638868331909
1672829365777586700,19.875586669921876,9.748680114746094,-0.06582823395729065,-0.8982085585594177
1672829365787532500,19.885532470703126,9.854081153869629,0.0012451708316802979,-0.5724234580993652
1672829365797478700,19.895478759765624,9.863662719726562,0.0395728275179863,-0.14602823555469513
1672829365807424800,19.9054248046875,9.815753936767578,-0.0035457871854305267,0.15580205619335175
1672829365817370600,19.91537060546875,9.815753936767578,0.025199957191944122,0.46242332458496094
1672829365827316700,19.925316650390624,9.849289894104004,0.06352761387825012,0.6444796323776245
1672829365837262800,19.935262939453125,9.844499588012695,0.0395728275179863,0.6828073263168335
1672829365847209000,19.945208984375,9.854081153869629,0.09227335453033447,0.5821971893310547
1672829365857154800,19.95515478515625,9.815753936767578,0.04436378553509712,0.3809770345687866
1672829365867101000,19.965100830078125,9.83970832824707,0.03478186950087547,0.20850259065628052
1672829365877047000,19.975047119140626,9.772634506225586,0.05394569784402847,-0.15081919729709625
1672829365886993000,19.984992919921876,9.834917068481445,0.020408999174833298,-0.39515799283981323
1672829365896939000,19.99493896484375,9.906782150268555,0.029990913346409798,-0.4478585422039032
1672829365906885000,20.004885009765626,9.858872413635254,0.06831857562065125,-0.4670223891735077
1672829365916831200,20.014831298828124,9.787008285522461,0.06831857562065125,-0.47660425305366516
1672829365926777000,20.024777099609373,9.863662719726562,-0.022709615528583527,-0.3089207708835602
1672829365936723200,20.03472314453125,9.830126762390137,-0.10894684493541718,-0.28496599197387695
1672829365946669300,20.04466943359375,9.772634506225586,-0.11852875351905823,-0.26580217480659485
1672829365956615400,20.054615478515625,9.849289894104004,-0.171229287981987,-0.3520393967628479
1672829365966561300,20.064561279296875,9.815753936767578,-0.10894684493541718,-0.41911280155181885
1672829365976507400,20.07450732421875,9.820544242858887,-0.094573974609375,-0.5293048620223999
1672829365986453500,20.08445361328125,9.834917068481445,-0.11852875351905823,-0.5436776876449585
1672829365996399400,20.0943994140625,9.834917068481445,-0.21434789896011353,-0.1220734566450119
1672829366006345500,20.104345458984376,9.868453979492188,-0.31974896788597107,-0.27059313654899597
1672829366016291600,20.11429150390625,9.753471374511719,-0.15685640275478363,-0.18435589969158173
1672829366026237700,20.12423779296875,9.854081153869629,-0.04666439816355705,-0.13165536522865295
1672829366036183600,20.13418359375,9.849289894104004,0.025199957191944122,-0.016672398895025253
1672829366046129700,20.144129638671874,9.892409324645996,-0.041873443871736526,0.13184726238250732
1672829366056075800,20.15407568359375,9.719934463500977,-0.022709615528583527,0.2755759656429291
1672829366066022000,20.16402197265625,9.878035545349121,-0.0370824858546257,0.256412148475647
1672829366075967700,20.1739677734375,9.815753936767578,-0.022709615528583527,0.10310152173042297
1672829366085913900,20.183913818359375,9.868453979492188,0.04915474355220795,0.002491425722837448
1672829366095860000,20.19385986328125,9.767844200134277,0.1545557975769043,-0.011881444603204727
1672829366105805800,20.203805908203126,9.964273452758789,0.16413772106170654,1.6793264150619507
1672829366115752000,20.213751953125,9.79179859161377,0.04915474355220795,1.3008407354354858
1672829366125698000,20.223697998046877,9.858872413635254,-0.7700989246368408,2.0338573455810547
1672829366135644200,20.23364404296875,9.925945281982422,0.03478186950087547,-0.49576810002326965
1672829366145590000,20.243590087890624,9.854081153869629,0.5330414175987244,-0.8455079793930054
1672829366155536100,20.2535361328125,9.878035545349121,0.5426232814788818,-3.149958372116089
1672829366165482200,20.263482177734375,9.705561637878418,0.08269144594669342,-0.8455079793930054
1672829366175428400,20.273428466796876,9.830126762390137,-0.15685640275478363,-0.39515799283981323
1672829366185374500,20.28337451171875,9.878035545349121,-0.13769258558750153,-0.562841534614563
1672829366195320600,20.293320556640627,9.767844200134277,-0.171229287981987,-0.5532596111297607
1672829366205266700,20.3032666015625,9.79179859161377,-0.4395228922367096,-0.011881444603204727
1672829366215212800,20.313212890625,9.94031810760498,-0.6982345581054688,0.39055895805358887
1672829366225159000,20.323158935546875,9.80138111114502,-0.8563361763954163,0.46242332458496094
1672829366235104800,20.333104736328124,9.825335502624512,-0.8850818872451782,0.5678243637084961
1672829366245051000,20.34305078125,9.763052940368652,-0.7940537333488464,0.6732254028320312
1672829366254997000,20.3529970703125,9.854081153869629,-0.5545058846473694,1.0660839080810547
1672829366264943000,20.362943115234376,9.787008285522461,-0.17602023482322693,1.1619030237197876
1672829366274889200,20.37288916015625,9.767844200134277,0.04436378553509712,1.3822870254516602
1672829366284835300,20.38283544921875,9.873245239257812,0.029990913346409798,1.4589424133300781
1672829366294781400,20.392781494140625,9.806171417236328,0.03478186950087547,1.147530198097229
1672829366304727600,20.4027275390625,9.820544242858887,0.020408999174833298,0.6875982880592346
1672829366314673700,20.412673583984375,9.954690933227539,0.07310952246189117,0.2803669273853302
1672829366324619800,20.422619873046877,9.834917068481445,0.1545557975769043,-0.22268354892730713
1672829366334566000,20.43256591796875,9.748680114746094,0.19767440855503082,-0.5580505728721619
1672829366344512000,20.442511962890624,9.834917068481445,0.17851059138774872,-0.7161521911621094
1672829366354458000,20.4524580078125,9.787008285522461,0.17851059138774872,-0.9269542694091797
1672829366364404200,20.462404296875,9.897199630737305,0.14976485073566437,-1.0898468494415283
1672829366374350300,20.472350341796876,9.849289894104004,0.14976485073566437,-1.0946377515792847
1672829366384296200,20.482296142578125,9.806171417236328,0.16892866790294647,-0.8311351537704468
1672829366394242300,20.4922421875,9.767844200134277,0.020408999174833298,-0.34245747327804565
1672829366404188400,20.5021884765625,9.844499588012695,-0.19518406689167023,0.031237170100212097
1672829366414134500,20.512134521484374,9.830126762390137,-0.31974896788597107,0.23245736956596375
1672829366424080600,20.52208056640625,9.830126762390137,-0.3101670444011688,0.14142918586730957
1672829366434026800,20.53202685546875,9.930736541748047,-0.2910032272338867,0.11747439205646515
1672829366443972900,20.541972900390626,9.700770378112793,-0.23351173102855682,0.031237170100212097
1672829366453919000,20.5519189453125,9.873245239257812,-0.20476597547531128,0.11268344521522522
1672829366463865000,20.561864990234376,9.787008285522461,-0.19518406689167023,0.08393769711256027
1672829366473811200,20.571811279296874,9.830126762390137,-0.20476597547531128,0.031237170100212097
1672829366483757300,20.58175732421875,9.782217025756836,-0.17602023482322693,-0.13644632697105408
1672829366493703400,20.591703369140625,9.806171417236328,-0.25746652483940125,-0.14602823555469513
1672829366503649500,20.6016494140625,9.854081153869629,-0.19997502863407135,-0.5053500533103943
1672829366513595600,20.611595703125,9.777425765991211,-0.22392980754375458,-0.1412372887134552
1672829366523541500,20.62154150390625,9.849289894104004,-0.33412182331085205,0.3139036297798157
1672829366533487600,20.631487548828126,9.83970832824707,-0.5257601141929626,0.40493181347846985
1672829366543433700,20.641433837890624,9.80138111114502,-0.5976244807243347,0.3139036297798157
1672829366553379800,20.6513798828125,9.849289894104004,-0.5832515954971313,0.16059301793575287
1672829366563326000,20.661325927734374,9.849289894104004,-0.540132999420166,0.1653839647769928
1672829366573272000,20.67127197265625,9.80138111114502,-0.607206404209137,0.3618132174015045
1672829366583218200,20.68121826171875,9.763052940368652,-0.6311611533164978,0.48158714175224304
1672829366593164300,20.691164306640626,9.820544242858887,-0.5976244807243347,0.5007509589195251
1672829366603110400,20.7011103515625,9.820544242858887,-0.49222344160079956,0.5869881510734558
1672829366613056300,20.71105615234375,9.772634506225586,-0.35807663202285767,0.5151238441467285
1672829366623002400,20.72100244140625,9.921154975891113,-0.2526755630970001,0.5007509589195251
1672829366632948500,20.730948486328124,9.810962677001953,-0.14248353242874146,0.36660417914390564
1672829366642894600,20.74089453125,9.825335502624512,-0.1329016238451004,0.3234855532646179
1672829366652840400,20.75084033203125,9.834917068481445,-0.1137377917766571,0.3234855532646179
1672829366662786600,20.76078662109375,9.810962677001953,-0.0754101425409317,0.23724833130836487
1672829366672732700,20.770732666015626,9.844499588012695,-0.041873443871736526,0.04561004042625427
1672829366682678500,20.780678466796875,9.83970832824707,0.029990913346409798,-0.059791017323732376
1672829366692624600,20.790624755859376,9.763052940368652,0.04436378553509712,-0.1412372887134552
1672829366702570800,20.80057080078125,9.887618064880371,0.0779004842042923,-0.17477397620677948
1672829366712516900,20.810516845703123,9.796589851379395,0.15934675931930542,-0.2514292895793915
1672829366722462700,20.820462646484376,9.868453979492188,0.10185526311397552,-0.13644632697105408
1672829366732408800,20.830408935546874,9.763052940368652,-0.08020110428333282,-0.026254314929246902
1672829366742355000,20.84035498046875,9.858872413635254,-0.21434789896011353,0.17975685000419617
1672829366752301000,20.850301025390625,9.825335502624512,-0.24309362471103668,0.35223129391670227
1672829366762247000,20.860246826171874,9.810962677001953,-0.2095569372177124,0.3570222556591034
1672829366772193000,20.870193115234375,9.83970832824707,-0.08499205112457275,0.19892066717147827
1672829366782139100,20.88013916015625,9.810962677001953,0.11143718659877777,-0.09811866283416748
1672829366792085000,20.8900849609375,9.854081153869629,0.18330153822898865,-0.28017503023147583
1672829366802031000,20.900031005859375,9.758261680603027,-0.0035457871854305267,-0.19393780827522278
1672829366811977200,20.909977294921877,9.854081153869629,-0.31974896788597107,0.242039293050766
1672829366821923300,20.91992333984375,9.772634506225586,-0.401195228099823,0.4672142565250397
1672829366831869200,20.929869140625,9.854081153869629,-0.37724044919013977,0.4720052182674408
1672829366841815300,20.939815185546873,9.83970832824707,-0.2670484483242035,0.3426493704319
1672829366851761400,20.949761474609375,9.834917068481445,-0.12331971526145935,0.07914674282073975
1672829366861707500,20.95970751953125,9.858872413635254,-0.0035457871854305267,-0.1412372887134552
1672829366871653400,20.9696533203125,9.806171417236328,-0.03229152783751488,-0.20831069350242615
1672829366881599500,20.979599609375,9.772634506225586,-0.2095569372177124,0.04561004042625427
1672829366891545600,20.989545654296876,9.777425765991211,-0.33412182331085205,0.4672142565250397
1672829366901491500,20.999491455078125,9.887618064880371,-0.4443138539791107,0.7067620754241943
1672829366911437600,21.0094375,9.758261680603027,-0.4443138539791107,0.8600727319717407
1672829366921383700,21.0193837890625,9.897199630737305,-0.41556811332702637,0.7738354802131653
1672829366931329800,21.029329833984374,9.758261680603027,-0.31495800614356995,0.4528414011001587
1672829366941276000,21.03927587890625,9.854081153869629,-0.23830269277095795,0.09831057488918304
1672829366951222000,21.049221923828124,9.90199089050293,-0.23830269277095795,-0.05500005558133125
1672829366961168400,21.05916845703125,9.767844200134277,-0.2910032272338867,0.002491425722837448
1672829366971114500,21.069114501953123,9.834917068481445,-0.37724044919013977,0.18933875858783722
1672829366981060900,21.079060791015625,9.796589851379395,-0.3628675937652588,0.17975685000419617
1672829366991007000,21.089007080078126,9.844499588012695,-0.35807663202285767,0.1653839647769928
1672829367000952800,21.098952880859375,9.73909854888916,-0.1903931051492691,0.007282383739948273
1672829367010899000,21.10889892578125,9.873245239257812,-0.06103726848959923,-0.20351973176002502
1672829367020845600,21.118845458984374,9.854081153869629,-0.0035457871854305267,-0.43348565697669983
1672829367030792000,21.1287919921875,9.854081153869629,-0.08499205112457275,-0.45744046568870544
1672829367040738600,21.138738525390625,9.80138111114502,-0.2718393802642822,-0.2993388772010803
1672829367050683100,21.14868310546875,9.820544242858887,-0.31974896788597107,-0.11249153316020966
1672829367060628000,21.1586279296875,9.83970832824707,-0.2287207692861557,-0.04062718525528908
1672829367070573000,21.168572998046876,9.79179859161377,-0.20476597547531128,0.11747439205646515
1672829367080519200,21.178519287109374,9.83970832824707,-0.2862122654914856,0.3570222556591034
1672829367090474500,21.188474609375,9.806171417236328,-0.2814213037490845,0.4720052182674408
1672829367100437500,21.1984375,9.844499588012695,-0.21913884580135345,0.4672142565250397
1672829367110359600,21.208359619140627,9.79179859161377,-0.171229287981987,0.35223129391670227
1672829367120282600,21.21828271484375,9.830126762390137,-0.12331971526145935,0.256412148475647
1672829367130207500,21.22820751953125,9.858872413635254,-0.10415588319301605,0.1270563155412674
1672829367140135200,21.23813525390625,9.825335502624512,-0.022709615528583527,0.031237170100212097
1672829367150066000,21.24806591796875,9.810962677001953,-0.06103726848959923,0.11268344521522522
1672829367160000300,21.258000244140625,9.844499588012695,-0.19997502863407135,0.3378584384918213
1672829367169938700,21.267938720703125,9.796589851379395,-0.27663034200668335,0.5055419206619263
1672829367179881200,21.277881103515625,9.830126762390137,-0.31495800614356995,0.6923892498016357
1672829367189828000,21.287828125,9.806171417236328,-0.2526755630970001,0.6780163645744324
1672829367199778800,21.29777880859375,9.849289894104004,-0.08020110428333282,0.4911690652370453
1672829367209733000,21.307733154296876,9.844499588012695,0.04436378553509712,0.3761860728263855
1672829367219690500,21.3176904296875,9.815753936767578,0.0395728275179863,0.4001408815383911
1672829367229650700,21.327650634765625,9.844499588012695,-0.08978301286697388,0.5965700745582581
1672829367239612400,21.3376123046875,9.815753936767578,-0.19997502863407135,0.7355078458786011
1672829367249575400,21.347575439453124,9.810962677001953,-0.24309362471103668,0.7738354802131653
1672829367259539000,21.3575390625,9.825335502624512,-0.2814213037490845,0.7834174036979675
1672829367269496600,21.36749658203125,9.815753936767578,-0.29579418897628784,0.7211349606513977
1672829367279442700,21.377442626953126,9.83970832824707,-0.2526755630970001,0.5055419206619263
1672829367289388800,21.387388916015624,9.854081153869629,-0.171229287981987,0.27078503370285034
1672829367299335000,21.3973349609375,9.787008285522461,-0.09936492145061493,0.15580205619335175
1672829367309280800,21.40728076171875,9.83970832824707,-0.013127699494361877,0.016864299774169922
1672829367319227000,21.417226806640624,9.79179859161377,-0.06103726848959923,0.06477387249469757
1672829367329173000,21.427173095703125,9.825335502624512,-0.08020110428333282,0.06477387249469757
1672829367339119000,21.437119140625,9.854081153869629,-0.08978301286697388,0.05998291075229645
1672829367349065000,21.44706494140625,9.80138111114502,-0.10415588319301605,0.05998291075229645
1672829367359011000,21.457010986328125,9.834917068481445,-0.10894684493541718,0.0504009984433651
1672829367368957200,21.466957275390627,9.815753936767578,-0.10894684493541718,0.040819086134433746
1672829367378903300,21.4769033203125,9.834917068481445,-0.094573974609375,0.04561004042625427
1672829367388849200,21.48684912109375,9.810962677001953,-0.08499205112457275,0.05519195646047592
1672829367398795300,21.496795166015627,9.844499588012695,-0.08499205112457275,0.05998291075229645
1672829367408741400,21.506741455078124,9.834917068481445,-0.08499205112457275,0.06477387249469757
