time,seconds_elapsed,z,y,x
1672829346054615600,0.152615478515625,9.806063652038574,-0.10069260001182556,0.03692546486854553
1672829346064433700,0.16243359375,9.806065559387207,-0.10048414021730423,0.03678901493549347
1672829346074265300,0.172265380859375,9.806069374084473,-0.09988051652908325,0.0376472994685173
1672829346084114700,0.18211474609375,9.806082725524902,-0.09826042503118515,0.038365479558706284
1672829346093985000,0.191985107421875,9.8060941696167,-0.09670555591583252,0.03934883326292038
1672829346103878700,0.201878662109375,9.806103706359863,-0.09555603563785553,0.04000192508101463
1672829346113796400,0.21179638671875,9.806107521057129,-0.09501203149557114,0.0402081124484539
1672829346123738400,0.22173828125,9.80610466003418,-0.09542882442474365,0.03990248590707779
1672829346133704200,0.2317041015625,9.806103706359863,-0.09550687670707703,0.0400133915245533
1672829346143692000,0.241692138671875,9.806106567382812,-0.09503123909235,0.04038156941533089
1672829346153698800,0.25169873046875,9.806111335754395,-0.09444402158260345,0.04071445018053055
1672829346163722000,0.261721923828125,9.806117057800293,-0.09367531538009644,0.04101930931210518
1672829346173757400,0.27175732421875,9.80611801147461,-0.09320644289255142,0.04185531288385391
1672829346183801000,0.281801025390625,9.806121826171875,-0.09277825802564621,0.041768308728933334
1672829346193849000,0.29184912109375,9.806122779846191,-0.09259207546710968,0.04199538379907608
1672829346203893000,0.30189306640625,9.806122779846191,-0.09261799603700638,0.042204465717077255
1672829346213838800,0.3118388671875,9.806118965148926,-0.09293200075626373,0.042107220739126205
1672829346223784700,0.32178466796875,9.806118965148926,-0.09285514801740646,0.04228506609797478
1672829346233730600,0.33173046875,9.806120872497559,-0.09251240640878677,0.04248997941613197
1672829346243676400,0.341676513671875,9.80612564086914,-0.0920214131474495,0.04258984327316284
1672829346253622300,0.351622314453125,9.806126594543457,-0.0917210504412651,0.042817648500204086
1672829346263568100,0.361568115234375,9.80612850189209,-0.09170439094305038,0.04276994988322258
1672829346273514200,0.37151416015625,9.806127548217773,-0.09184530377388,0.04272075742483139
1672829346283460000,0.381460205078125,9.806126594543457,-0.09198018908500671,0.042622700333595276
1672829346293406000,0.391406005859375,9.80612564086914,-0.09196161478757858,0.04277228191494942
1672829346303351800,0.401351806640625,9.80612564086914,-0.0919441282749176,0.0428144708275795
1672829346313297700,0.411297607421875,9.806122779846191,-0.09193272143602371,0.04346835985779762
1672829346323243500,0.421243408203125,9.80612564086914,-0.09158605337142944,0.04358924180269241
1672829346333189400,0.431189453125,9.806126594543457,-0.09142672270536423,0.04370482265949249
1672829346343135200,0.44113525390625,9.806126594543457,-0.09145748615264893,0.04358849674463272
1672829346353081000,0.4510810546875,9.806126594543457,-0.09148550778627396,0.04359998553991318
1672829346363027200,0.461027099609375,9.80612850189209,-0.09127067774534225,0.04373156651854515
1672829346372973000,0.47097314453125,9.80612850189209,-0.09118292480707169,0.043939873576164246
1672829346382919000,0.4809189453125,9.80612850189209,-0.0909842923283577,0.04405347257852554
1672829346392864800,0.49086474609375,9.80612850189209,-0.09099534153938293,0.04436429589986801
1672829346402810600,0.500810546875,9.806130409240723,-0.09059040248394012,0.044454075396060944
1672829346412756500,0.510756591796875,9.806132316589355,-0.09052117168903351,0.04443589225411415
1672829346422702300,0.520702392578125,9.806130409240723,-0.09066059440374374,0.044316455721855164
1672829346432648200,0.530648193359375,9.806130409240723,-0.09079420566558838,0.0442008338868618
1672829346442594000,0.540593994140625,9.80612850189209,-0.09082143753767014,0.04439365491271019
1672829346452540200,0.5505400390625,9.806129455566406,-0.09074896574020386,0.04447999596595764
1672829346462486000,0.560486083984375,9.80612850189209,-0.09067893773317337,0.04466129466891289
1672829346472431900,0.570431884765625,9.806130409240723,-0.09051655232906342,0.04483542591333389
1672829346482377700,0.580377685546875,9.806130409240723,-0.0906553715467453,0.04452428221702576
1672829346492323600,0.590323486328125,9.80612850189209,-0.09085468202829361,0.0444263257086277
1672829346502269400,0.60026953125,9.806126594543457,-0.09106412529945374,0.044408634305000305
1672829346512215300,0.61021533203125,9.806127548217773,-0.09099186956882477,0.04449332132935524
1672829346522161200,0.6201611328125,9.80612850189209,-0.09074658155441284,0.04467625916004181
1672829346532107300,0.630107177734375,9.806129455566406,-0.0905977264046669,0.044755980372428894
1672829346542053000,0.64005322265625,9.80612850189209,-0.09055076539516449,0.045036036521196365
1672829346551999000,0.6499990234375,9.806129455566406,-0.09042860567569733,0.045109786093235016
1672829346561944800,0.65994482421875,9.80612850189209,-0.09052599966526031,0.045101359486579895
1672829346571890700,0.669890625,9.806127548217773,-0.09064421057701111,0.0451728031039238
1672829346581836500,0.67983642578125,9.80612564086914,-0.09074065834283829,0.04534536227583885
1672829346591782400,0.689782470703125,9.806126594543457,-0.09065021574497223,0.04531019181013107
1672829346601728300,0.699728271484375,9.80612850189209,-0.09042459726333618,0.045379094779491425
1672829346611674000,0.709674072265625,9.80612850189209,-0.0903870239853859,0.0454232320189476
1672829346621620200,0.7196201171875,9.806131362915039,-0.09014429897069931,0.04528404027223587
1672829346631566000,0.729566162109375,9.806132316589355,-0.09008700400590897,0.04517056420445442
1672829346641512000,0.739511962890625,9.806133270263672,-0.09000939875841141,0.045058414340019226
1672829346651457800,0.749457763671875,9.806134223937988,-0.08993189036846161,0.04505087807774544
1672829346661403600,0.759403564453125,9.806134223937988,-0.09003898501396179,0.044942039996385574
1672829346671349500,0.769349609375,9.806132316589355,-0.09006313234567642,0.045118290930986404
1672829346681295400,0.77929541015625,9.806134223937988,-0.08992799371480942,0.04498419165611267
1672829346691241200,0.7892412109375,9.806136131286621,-0.08969441056251526,0.04505738988518715
1672829346701187000,0.79918701171875,9.806135177612305,-0.08992931991815567,0.044944554567337036
1672829346711133200,0.80913330078125,9.806134223937988,-0.08995721489191055,0.04501840099692345
1672829346721079000,0.8190791015625,9.806134223937988,-0.08998272567987442,0.04509121924638748
1672829346731025000,0.82902490234375,9.806132316589355,-0.09011118113994598,0.04508258402347565
1672829346740971000,0.838970947265625,9.806131362915039,-0.09015806019306183,0.04533689469099045
1672829346750917000,0.848917236328125,9.806131362915039,-0.09002088010311127,0.045381903648376465
1672829346760863200,0.85886328125,9.806135177612305,-0.08978603035211563,0.045347604900598526
1672829346770809300,0.868809326171875,9.806134223937988,-0.08975721895694733,0.0452902652323246
1672829346780755500,0.87875537109375,9.806134223937988,-0.08991339802742004,0.0451543927192688
1672829346790701800,0.888701904296875,9.806132316589355,-0.09012291580438614,0.04512350633740425
1672829346800648000,0.89864794921875,9.806132316589355,-0.09017009288072586,0.04501254856586456
1672829346810596000,0.90859619140625,9.806133270263672,-0.09009057283401489,0.04500618949532509
1672829346820548000,0.918548095703125,9.806135177612305,-0.08985301852226257,0.04492031782865524
1672829346830484700,0.928484619140625,9.806135177612305,-0.0898025706410408,0.04509658366441727
1672829346840422100,0.938422119140625,9.806134223937988,-0.0898318737745285,0.0451674684882164
1672829346850359800,0.94835986328125,9.806136131286621,-0.08975814282894135,0.04489707946777344
1672829346860298800,0.958298828125,9.806136131286621,-0.08988934010267258,0.04479144141077995
1672829346870238700,0.96823876953125,9.806134223937988,-0.09009844809770584,0.044970471411943436
1672829346880180200,0.97818017578125,9.806131362915039,-0.09030361473560333,0.045045360922813416
1672829346890123300,0.988123291015625,9.806132316589355,-0.09022239595651627,0.044810738414525986
1672829346900067800,0.99806787109375,9.806132316589355,-0.09037051349878311,0.044783711433410645
1672829346910014000,1.008013916015625,9.806129455566406,-0.09049244970083237,0.04496203362941742
1672829346919961300,1.01796142578125,9.806129455566406,-0.09053226560354233,0.04477471858263016
1672829346929910500,1.02791064453125,9.806129455566406,-0.09049105644226074,0.04493127018213272
1672829346939860500,1.037860595703125,9.80612850189209,-0.0905085951089859,0.045086875557899475
1672829346949811700,1.047811767578125,9.80612850189209,-0.09044713526964188,0.0452154241502285
1672829346959763700,1.057763671875,9.80612850189209,-0.09038598090410233,0.04528442397713661
1672829346969716000,1.067716064453125,9.806127548217773,-0.09034870564937592,0.04545580968260765
1672829346979668500,1.07766845703125,9.80612850189209,-0.09047132730484009,0.04544248804450035
1672829346989619500,1.087619384765625,9.806127548217773,-0.0904105007648468,0.04540583863854408
1672829346999565300,1.0975654296875,9.80612564086914,-0.09063345938920975,0.04557471722364426
1672829347009511400,1.107511474609375,9.806123733520508,-0.0907520055770874,0.04553719237446785
1672829347019457300,1.117457275390625,9.80612564086914,-0.09070835262537003,0.04552115872502327
1672829347029403100,1.127403076171875,9.806123733520508,-0.09066641330718994,0.045666325837373734
1672829347039349000,1.137348876953125,9.806126594543457,-0.09049900621175766,0.04572870954871178
1672829347049294800,1.147294921875,9.80612564086914,-0.09059698134660721,0.045585133135318756
1672829347059240700,1.15724072265625,9.806126594543457,-0.09061276167631149,0.04554801061749458
1672829347069186600,1.1671865234375,9.806126594543457,-0.09052779525518417,0.045430365949869156
1672829347079132400,1.17713232421875,9.806126594543457,-0.09056700766086578,0.04554176330566406
1672829347089078300,1.187078369140625,9.806126594543457,-0.09050536155700684,0.04562855511903763
1672829347099024400,1.1970244140625,9.80612564086914,-0.09044424444437027,0.04574937745928764
1672829347108970200,1.20697021484375,9.806127548217773,-0.09020286053419113,0.04591234028339386
1672829347118916000,1.216916015625,9.806126594543457,-0.09032711386680603,0.045788828283548355
1672829347128862000,1.226862060546875,9.806126594543457,-0.0904260203242302,0.045564841479063034
1672829347138807800,1.236807861328125,9.806127548217773,-0.09036597609519958,0.04565088078379631
1672829347148753700,1.246753662109375,9.806126594543457,-0.09056759625673294,0.04561040550470352
1672829347158699500,1.256699462890625,9.80612564086914,-0.09060689061880112,0.04575370252132416
1672829347168645400,1.266645263671875,9.806123733520508,-0.09074842929840088,0.04583791270852089
1672829347178591200,1.27659130859375,9.806124687194824,-0.09057991206645966,0.045819129794836044
1672829347188537300,1.286537353515625,9.806123733520508,-0.09069813042879105,0.04590281844139099
1672829347198483200,1.296483154296875,9.806122779846191,-0.09081485867500305,0.04580239579081535
1672829347208429000,1.306428955078125,9.806119918823242,-0.0910089761018753,0.0457819364964962
1672829347218375000,1.316375,9.806122779846191,-0.09083754569292068,0.04557947441935539
1672829347228320800,1.32632080078125,9.806124687194824,-0.09061217308044434,0.04564310237765312
1672829347238266600,1.3362666015625,9.806123733520508,-0.09064999222755432,0.04578547552227974
1672829347248212500,1.34621240234375,9.806124687194824,-0.09058649092912674,0.04592622071504593
1672829347258158300,1.356158447265625,9.806122779846191,-0.09062568098306656,0.04595981538295746
1672829347268104400,1.3661044921875,9.806123733520508,-0.09064240753650665,0.04585656523704529
1672829347278050300,1.37605029296875,9.806123733520508,-0.09065884351730347,0.04583464190363884
1672829347287996200,1.38599609375,9.806122779846191,-0.09067210555076599,0.04599694535136223
1672829347297942000,1.39594189453125,9.806121826171875,-0.09079121053218842,0.04587220773100853
1672829347307887900,1.405887939453125,9.806122779846191,-0.09080496430397034,0.045852288603782654
1672829347317833700,1.415833740234375,9.80612564086914,-0.09055637568235397,0.045809779316186905
1672829347327779600,1.425779541015625,9.806124687194824,-0.09059558808803558,0.04576665535569191
1672829347337725400,1.435725341796875,9.806123733520508,-0.09081544727087021,0.04572519287467003
1672829347347671300,1.44567138671875,9.806122779846191,-0.09090716391801834,0.04568573832511902
1672829347357617400,1.455617431640625,9.806119918823242,-0.09110024571418762,0.045647308230400085
1672829347367563300,1.465563232421875,9.806120872497559,-0.09110809862613678,0.04544900357723236
1672829347377509000,1.475509033203125,9.806121826171875,-0.09119541943073273,0.04541320353746414
1672829347387455200,1.485455322265625,9.806119918823242,-0.0913839042186737,0.04537704586982727
1672829347397401000,1.495401123046875,9.806120872497559,-0.09122709184885025,0.04552385210990906
1672829347407347000,1.505346923828125,9.806120872497559,-0.0910738855600357,0.04548812657594681
1672829347417292800,1.515292724609375,9.806121826171875,-0.09116224199533463,0.045371126383543015
1672829347427239000,1.525239013671875,9.806120872497559,-0.09124743193387985,0.045359764248132706
1672829347437184800,1.535184814453125,9.806118965148926,-0.09143505990505219,0.04550626873970032
1672829347447130600,1.545130615234375,9.806118965148926,-0.09145940840244293,0.04544790834188461
1672829347457076700,1.55507666015625,9.806120872497559,-0.09120187163352966,0.04533231630921364
1672829347467022600,1.565022705078125,9.806121826171875,-0.09104957431554794,0.04548060521483421
1672829347476968400,1.574968505859375,9.806121826171875,-0.09105873852968216,0.04560253396630287
1672829347486914600,1.58491455078125,9.806119918823242,-0.09116990864276886,0.04576755315065384
1672829347496860400,1.5948603515625,9.806118965148926,-0.09127923101186752,0.04582766443490982
1672829347506806300,1.60480615234375,9.806118965148926,-0.09128531813621521,0.04572794586420059
1672829347516752400,1.61475244140625,9.80611801147461,-0.09121020883321762,0.045810915529727936
1672829347526698200,1.6246982421875,9.806118965148926,-0.09121695905923843,0.045951224863529205
1672829347536644000,1.63464404296875,9.80611801147461,-0.09114325046539307,0.04611137881875038
1672829347546590200,1.644590087890625,9.806117057800293,-0.0910705178976059,0.046267542988061905
1672829347556536000,1.6545361328125,9.80611801147461,-0.09118129312992096,0.04621943086385727
1672829347566482000,1.66448193359375,9.806117057800293,-0.09118901193141937,0.046113185584545135
1672829347576428000,1.674427978515625,9.806117057800293,-0.09129679203033447,0.04600891098380089
1672829347586374000,1.684373779296875,9.80611801147461,-0.09122252464294434,0.04598672688007355
1672829347596319700,1.69431982421875,9.806117057800293,-0.09133172035217285,0.046066127717494965
1672829347606265900,1.704265869140625,9.806118965148926,-0.09099575877189636,0.046101346611976624
1672829347616211700,1.714211669921875,9.806121826171875,-0.09084763377904892,0.04605542868375778
1672829347626157600,1.724157470703125,9.806121826171875,-0.09088200330734253,0.045928604900836945
1672829347636103400,1.734103515625,9.806123733520508,-0.09071195870637894,0.04590512067079544
1672829347646049500,1.744049560546875,9.806123733520508,-0.09070444107055664,0.045964255928993225
1672829347655995400,1.753995361328125,9.806118965148926,-0.09097973257303238,0.04620473086833954
1672829347665941200,1.763941162109375,9.806118965148926,-0.09099081158638,0.046257928013801575
1672829347675887400,1.773887451171875,9.806119918823242,-0.09092014282941818,0.046185705810785294
1672829347685833200,1.783833251953125,9.806118965148926,-0.09095551818609238,0.046398792415857315
1672829347695779000,1.793779052734375,9.806117057800293,-0.09106893092393875,0.04634886234998703
1672829347705725200,1.80372509765625,9.806119918823242,-0.09091858565807343,0.04613792523741722
1672829347715671000,1.813671142578125,9.806121826171875,-0.09090811759233475,0.04585127532482147
1672829347725617000,1.823616943359375,9.806120872497559,-0.09099923819303513,0.045830391347408295
1672829347735563000,1.83356298828125,9.806122779846191,-0.09092944115400314,0.045585229992866516
1672829347745508900,1.8435087890625,9.806121826171875,-0.0911007896065712,0.04554790258407593
1672829347755454700,1.853454833984375,9.806123733520508,-0.09084654599428177,0.04540793225169182
1672829347765400800,1.86340087890625,9.806123733520508,-0.09080232679843903,0.04555495083332062
1672829347775346700,1.8733466796875,9.806123733520508,-0.09075859934091568,0.04572077840566635
1672829347785292500,1.88329248046875,9.806124687194824,-0.09069181233644485,0.0456230565905571
1672829347795238700,1.89323876953125,9.806123733520508,-0.09080863744020462,0.04550476744771004
1672829347805184500,1.9031845703125,9.806123733520508,-0.09074128419160843,0.04567331820726395
1672829347815130400,1.91313037109375,9.806124687194824,-0.0906541496515274,0.045837536454200745
1672829347825076500,1.923076416015625,9.806124687194824,-0.0905337706208229,0.04587298259139061
1672829347835022300,1.933022216796875,9.806123733520508,-0.09065443277359009,0.04593171179294586
1672829347844968200,1.94296826171875,9.806124687194824,-0.09059011936187744,0.04599003866314888
1672829347854914000,1.9529140625,9.806123733520508,-0.0906076729297638,0.046126414090394974
1672829347864860200,1.962860107421875,9.806122779846191,-0.09072711318731308,0.045999158173799515
1672829347874806000,1.972805908203125,9.806122779846191,-0.0907202959060669,0.04597524181008339
1672829347884752000,1.982751953125,9.806121826171875,-0.09083811938762665,0.045953985303640366
1672829347894698000,1.992697998046875,9.806120872497559,-0.09095250070095062,0.04601193964481354
1672829347904643800,2.002643798828125,9.806122779846191,-0.09062382578849792,0.04625049978494644
1672829347914589700,2.012589599609375,9.806124687194824,-0.09047969430685043,0.04609881341457367
1672829347924535800,2.022535888671875,9.806122779846191,-0.09060005098581314,0.04625651612877846
1672829347934481700,2.032481689453125,9.806124687194824,-0.0904361829161644,0.0462283231317997
1672829347944427500,2.042427490234375,9.806123733520508,-0.09055773913860321,0.04617859423160553
1672829347954373600,2.05237353515625,9.806120872497559,-0.09067800641059875,0.046232227236032486
1672829347964319500,2.062319580078125,9.806121826171875,-0.0906931534409523,0.04628686606884003
1672829347974265300,2.072265380859375,9.806121826171875,-0.09070851653814316,0.04623747244477272
1672829347984211500,2.08221142578125,9.806121826171875,-0.09064499288797379,0.046368785202503204
1672829347994157300,2.0921572265625,9.806121826171875,-0.09058206528425217,0.04633965715765953
1672829348004103200,2.102103271484375,9.806122779846191,-0.09059853851795197,0.04628900811076164
1672829348014049300,2.11204931640625,9.806121826171875,-0.09071812778711319,0.0461590401828289
1672829348023995100,2.1219951171875,9.806121826171875,-0.09083452075719833,0.04605438560247421
1672829348033941000,2.13194091796875,9.806119918823242,-0.0909266322851181,0.046111974865198135
1672829348043887000,2.14188720703125,9.806119918823242,-0.09096141904592514,0.04606587812304497
1672829348053833000,2.1518330078125,9.806121826171875,-0.09081409126520157,0.04601828381419182
1672829348063778800,2.16177880859375,9.806120872497559,-0.09092839062213898,0.04599650949239731
1672829348073724700,2.171724609375,9.806119918823242,-0.09093958139419556,0.04597320780158043
1672829348083670800,2.1816708984375,9.806119918823242,-0.09103165566921234,0.0460532009601593
1672829348093616600,2.19161669921875,9.806118965148926,-0.09114476293325424,0.04592752456665039
1672829348103562500,2.2015625,9.806118965148926,-0.0912785604596138,0.04580395296216011
1672829348113508600,2.211508544921875,9.806116104125977,-0.0913863331079483,0.04604653641581535
1672829348123454500,2.221454345703125,9.80611801147461,-0.09131056070327759,0.04589898884296417
1672829348133400300,2.231400390625,9.806116104125977,-0.09144064038991928,0.045959558337926865
1672829348143346400,2.241346435546875,9.80611515045166,-0.091544970870018,0.04593781381845474
1672829348153292300,2.251292236328125,9.806117057800293,-0.09154514968395233,0.045631181448698044
1672829348163238100,2.261238037109375,9.806116104125977,-0.09154706448316574,0.045717816799879074
1672829348173184300,2.271184326171875,9.806117057800293,-0.09154625236988068,0.045700687915086746
1672829348183130000,2.281130126953125,9.80611801147461,-0.09144698083400726,0.04553839564323425
1672829348193076000,2.291075927734375,9.80611801147461,-0.09155270457267761,0.04542224481701851
1672829348203022000,2.30102197265625,9.80611801147461,-0.09155374765396118,0.04538726061582565
1672829348212968000,2.310968017578125,9.806117057800293,-0.09165816754102707,0.045454446226358414
1672829348222913800,2.320913818359375,9.806118965148926,-0.09147393703460693,0.04533727094531059
1672829348232860000,2.33085986328125,9.806119918823242,-0.09137757867574692,0.045349348336458206
1672829348242805800,2.3408056640625,9.806119918823242,-0.09137959778308868,0.045417964458465576
1672829348252751600,2.350751708984375,9.806118965148926,-0.09142912924289703,0.0454842709004879
1672829348262697700,2.36069775390625,9.806169509887695,-0.09110312163829803,0.03366484493017197
1672829348272643600,2.3706435546875,9.806153297424316,-0.09143463522195816,0.03712627664208412
1672829348282589400,2.38058935546875,9.806140899658203,-0.09144621342420578,0.040456291288137436
1672829348292535300,2.390535400390625,9.806138038635254,-0.09164342284202576,0.040362294763326645
1672829348302481400,2.4004814453125,9.806137084960938,-0.09223861992359161,0.039165303111076355
1672829348312427300,2.41042724609375,9.806135177612305,-0.09221968799829483,0.039910417050123215
1672829348322373000,2.420373046875,9.806133270263672,-0.09200304001569748,0.041010499000549316
1672829348332319200,2.4303193359375,9.806132316589355,-0.0920066088438034,0.04131603613495827
1672829348342265000,2.44026513671875,9.806132316589355,-0.0919966921210289,0.041292063891887665
1672829348352211000,2.4502109375,9.806133270263672,-0.09191150218248367,0.0411444753408432
1672829348362157000,2.460156982421875,9.806134223937988,-0.09182815253734589,0.041100554168224335
1672829348372103000,2.47010302734375,9.806136131286621,-0.09164242446422577,0.041058946400880814
1672829348382048800,2.480048828125,9.806135177612305,-0.09174489974975586,0.04111957922577858
1672829348391995000,2.489994873046875,9.806136131286621,-0.09166358411312103,0.04107574746012688
1672829348401940700,2.499940673828125,9.806137084960938,-0.09150359779596329,0.041317541152238846
1672829348411886600,2.509886474609375,9.806135177612305,-0.09160997718572617,0.041451890021562576
1672829348421832700,2.519832763671875,9.806134223937988,-0.09153048694133759,0.04158524423837662
1672829348431778600,2.529778564453125,9.806134223937988,-0.0915319100022316,0.041534602642059326
1672829348441724400,2.539724365234375,9.806135177612305,-0.09153448790311813,0.04148418456315994
1672829348451670500,2.54967041015625,9.806135177612305,-0.09153541922569275,0.041617948561906815
1672829348461616400,2.559616455078125,9.806132316589355,-0.09171926230192184,0.04185103252530098
1672829348471562200,2.569562255859375,9.806130409240723,-0.09174084663391113,0.042057689279317856
1672829348481508400,2.57950830078125,9.806130409240723,-0.09168321639299393,0.04210203140974045
1672829348491454200,2.5894541015625,9.806129455566406,-0.09180682897567749,0.04214494302868843
1672829348501400300,2.599400390625,9.806129455566406,-0.09174630045890808,0.04216328263282776
1672829348511346400,2.609346435546875,9.806131362915039,-0.09166526794433594,0.04228512942790985
1672829348521292800,2.619292724609375,9.80612850189209,-0.09174492955207825,0.042323075234889984
1672829348531239200,2.6292392578125,9.80612850189209,-0.09166360646486282,0.04254312813282013
1672829348541185500,2.639185546875,9.806127548217773,-0.0917646735906601,0.04275916889309883
1672829348551132200,2.649132080078125,9.80612850189209,-0.0916849747300148,0.04284696653485298
1672829348561078000,2.659078125,9.806127548217773,-0.09176415950059891,0.04285524785518646
1672829348571022600,2.669022705078125,9.806126594543457,-0.09176184982061386,0.04288333281874657
1672829348580967200,2.67896728515625,9.806126594543457,-0.09170355647802353,0.04299222305417061
1672829348590912000,2.688912109375,9.80612850189209,-0.09156543761491776,0.04320206120610237
1672829348600856800,2.69885693359375,9.80612850189209,-0.09148667007684708,0.043204087764024734
1672829348610801700,2.7088017578125,9.806127548217773,-0.09156963229179382,0.04318292438983917
1672829348620747000,2.7187470703125,9.806126594543457,-0.09167450666427612,0.04318501800298691
1672829348630692400,2.7286923828125,9.806124687194824,-0.09169802814722061,0.04341394826769829
1672829348640639200,2.73863916015625,9.80612564086914,-0.09159614890813828,0.04351305961608887
1672829348650586000,2.748586181640625,9.806126594543457,-0.0915413647890091,0.04350965470075607
1672829348660533000,2.758532958984375,9.806126594543457,-0.09148555994033813,0.04352911189198494
1672829348670480100,2.768480224609375,9.80612850189209,-0.09138721227645874,0.04354669526219368
1672829348680437000,2.77843701171875,9.806126594543457,-0.0914720669388771,0.043361734598875046
1672829348690403600,2.788403564453125,9.806127548217773,-0.09157659858465195,0.04328366741538048
1672829348700320000,2.798320068359375,9.806129455566406,-0.09139710664749146,0.04320422559976578
1672829348710237400,2.808237548828125,9.806131362915039,-0.09124239534139633,0.043206676840782166
1672829348720157200,2.8181572265625,9.806129455566406,-0.09127294272184372,0.04341226816177368
1672829348730080300,2.828080322265625,9.806131362915039,-0.09111998975276947,0.04333030804991722
1672829348740007200,2.838007080078125,9.806131362915039,-0.09115070104598999,0.04322829842567444
1672829348749938700,2.847938720703125,9.806131362915039,-0.09123889356851578,0.043071046471595764
1672829348759875300,2.857875244140625,9.806132316589355,-0.09114508330821991,0.043075039982795715
1672829348769817000,2.867817138671875,9.806130409240723,-0.09115324914455414,0.04336436465382576
1672829348779763700,2.877763671875,9.806129455566406,-0.09118573367595673,0.043364737182855606
1672829348789715500,2.887715576171875,9.806129455566406,-0.09119334071874619,0.04348791018128395
1672829348799671800,2.897671875,9.806132316589355,-0.0910189226269722,0.043506838381290436
1672829348809631700,2.9076318359375,9.806130409240723,-0.09113185852766037,0.04332215338945389
1672829348819595000,2.917594970703125,9.806130409240723,-0.0912448912858963,0.0433676578104496
1672829348829560600,2.927560546875,9.806129455566406,-0.09135454148054123,0.04320699721574783
1672829348839527700,2.937527587890625,9.806129455566406,-0.09146314114332199,0.04302660748362541
1672829348849495300,2.947495361328125,9.806127548217773,-0.09167186170816422,0.043111808598041534
1672829348859455200,2.957455322265625,9.806129455566406,-0.0914120078086853,0.04321770370006561
1672829348869401000,2.967401123046875,9.80612850189209,-0.09141586720943451,0.043218519538640976
1672829348879347000,2.977346923828125,9.806127548217773,-0.09162399917840958,0.04324185475707054
1672829348889292800,2.987292724609375,9.806126594543457,-0.0915450006723404,0.04334573820233345
1672829348899239000,2.997239013671875,9.80612564086914,-0.09162655472755432,0.043447889387607574
1672829348909184800,3.007184814453125,9.806127548217773,-0.09152524918317795,0.043345317244529724
1672829348919130600,3.017130615234375,9.80612850189209,-0.09144789725542068,0.04336784780025482
1672829348929076700,3.02707666015625,9.80612564086914,-0.09155287593603134,0.04346928000450134
1672829348939022600,3.037022705078125,9.80612564086914,-0.09147460013628006,0.04367249459028244
1672829348948968400,3.046968505859375,9.806126594543457,-0.09150144457817078,0.043688978999853134
1672829348958914600,3.05691455078125,9.80612850189209,-0.09134531021118164,0.04352302476763725
1672829348968860400,3.0668603515625,9.80612850189209,-0.09132804721593857,0.043622225522994995
1672829348978806300,3.07680615234375,9.80612850189209,-0.0913582444190979,0.043535470962524414
1672829348988752400,3.08675244140625,9.806126594543457,-0.09146784245967865,0.04353109747171402
1672829348998698200,3.0966982421875,9.806126594543457,-0.09147107601165771,0.04347089305520058
1672829349008644000,3.10664404296875,9.80612850189209,-0.09129393845796585,0.04349203407764435
1672829349018590200,3.116590087890625,9.806127548217773,-0.09137969464063644,0.04351211339235306
1672829349028536000,3.1265361328125,9.806127548217773,-0.0914294570684433,0.04342970252037048
1672829349038482000,3.13648193359375,9.806130409240723,-0.09117189049720764,0.04353046417236328
1672829349048428000,3.146427978515625,9.806129455566406,-0.0912034809589386,0.04352548345923424
1672829349058374000,3.156373779296875,9.80612850189209,-0.09129194170236588,0.043624039739370346
1672829349068319700,3.16631982421875,9.806127548217773,-0.09137728065252304,0.04372250661253929
1672829349078265900,3.176265869140625,9.80612564086914,-0.09156382083892822,0.04373873770236969
1672829349088211700,3.186211669921875,9.806123733520508,-0.0917477086186409,0.04373122379183769
1672829349098157600,3.196157470703125,9.806124687194824,-0.09158626198768616,0.04392877221107483
1672829349108103400,3.206103515625,9.806124687194824,-0.09161051362752914,0.043940622359514236
1672829349118049500,3.216049560546875,9.806124687194824,-0.09155426174402237,0.044112514704465866
1672829349127995400,3.225995361328125,9.806123733520508,-0.09147761017084122,0.04409912973642349
1672829349137941200,3.235941162109375,9.806124687194824,-0.09150394052267075,0.04421161860227585
1672829349147887400,3.245887451171875,9.806122779846191,-0.0916658490896225,0.04429934546351433
1672829349157833200,3.255833251953125,9.806120872497559,-0.09182626008987427,0.04412355646491051
1672829349167779000,3.265779052734375,9.806119918823242,-0.09200549125671387,0.0441308319568634
1672829349177725200,3.27572509765625,9.806118965148926,-0.09199855476617813,0.044038694351911545
1672829349187671000,3.285671142578125,9.806119918823242,-0.09191377460956573,0.04415087401866913
1672829349197617000,3.295616943359375,9.806120872497559,-0.0916701927781105,0.04432022571563721
1672829349207563000,3.30556298828125,9.806124687194824,-0.09140981733798981,0.044303394854068756
1672829349217508900,3.3155087890625,9.806126594543457,-0.09116549789905548,0.04447595775127411
1672829349227454700,3.325454833984375,9.80612564086914,-0.09116463363170624,0.04436071217060089
1672829349237400800,3.33540087890625,9.80612564086914,-0.09134560078382492,0.04424738883972168
1672829349247346700,3.3453466796875,9.806121826171875,-0.09162572026252747,0.044317763298749924
1672829349257292500,3.35529248046875,9.806119918823242,-0.09179778397083282,0.04428538680076599
1672829349267238700,3.36523876953125,9.806120872497559,-0.09173031151294708,0.044254645705223083
1672829349277184500,3.3751845703125,9.806122779846191,-0.09166368842124939,0.044165968894958496
1672829349287130400,3.38513037109375,9.806121826171875,-0.09169912338256836,0.04421614482998848
1672829349297076500,3.395076416015625,9.806120872497559,-0.09173441678285599,0.04418487474322319
1672829349307022300,3.405022216796875,9.806121826171875,-0.09176913648843765,0.044176653027534485
1672829349316968200,3.41496826171875,9.806121826171875,-0.09185992926359177,0.044067345559597015
1672829349326914000,3.4249140625,9.806118965148926,-0.09207390248775482,0.04395986348390579
1672829349336860200,3.434860107421875,9.806117057800293,-0.09228476881980896,0.04403503239154816
1672829349346806000,3.444805908203125,9.806116104125977,-0.09231134504079819,0.044110625982284546
1672829349356752000,3.454751953125,9.80611801147461,-0.09215521812438965,0.04408375918865204
1672829349366698000,3.464697998046875,9.806119918823242,-0.09208029508590698,0.043976008892059326
1672829349376643800,3.474643798828125,9.806118965148926,-0.092006616294384,0.04397221654653549
1672829349386589700,3.484589599609375,9.80611801147461,-0.09213774651288986,0.04399064555764198
1672829349396535800,3.494535888671875,9.80611801147461,-0.09214276075363159,0.043964095413684845
1672829349406481700,3.504481689453125,9.80611801147461,-0.09212759137153625,0.04398180916905403
1672829349416427500,3.514427490234375,9.806116104125977,-0.09241750836372375,0.04397827386856079
1672829349426373600,3.52437353515625,9.80611515045166,-0.0924411192536354,0.043974801898002625
1672829349436319500,3.534319580078125,9.80611801147461,-0.09230642765760422,0.04396850988268852
1672829349446265300,3.544265380859375,9.80611515045166,-0.09235366433858871,0.0443284846842289
1672829349456211500,3.55421142578125,9.80611515045166,-0.09227710217237473,0.04439690709114075
1672829349466157300,3.5641572265625,9.806116104125977,-0.09220059961080551,0.0443626269698143
1672829349476103200,3.574103271484375,9.806116104125977,-0.0923638567328453,0.044250212609767914
1672829349486049300,3.58404931640625,9.806113243103027,-0.09254811704158783,0.044343408197164536
1672829349495995100,3.5939951171875,9.806114196777344,-0.09244458377361298,0.04441218450665474
1672829349505941000,3.60394091796875,9.806113243103027,-0.09244494885206223,0.04447981342673302
1672829349515887000,3.61388720703125,9.806113243103027,-0.09238816797733307,0.044648487120866776
1672829349525833000,3.6238330078125,9.80611515045166,-0.09222942590713501,0.04442783445119858
1672829349535778800,3.63377880859375,9.806116104125977,-0.09217652678489685,0.0444168783724308
1672829349545724700,3.643724609375,9.806114196777344,-0.09236270934343338,0.044485390186309814
1672829349555670800,3.6536708984375,9.806114196777344,-0.09242232143878937,0.04447249695658684
1672829349565616600,3.66361669921875,9.806113243103027,-0.09258189052343369,0.044358253479003906
1672829349575562500,3.6735625,9.806113243103027,-0.09255849570035934,0.044348809868097305
1672829349585508600,3.683508544921875,9.80611515045166,-0.09247805178165436,0.04423603415489197
1672829349595454500,3.693454345703125,9.806114196777344,-0.09241950511932373,0.04432971403002739
1672829349605400300,3.703400390625,9.806114196777344,-0.09244430065155029,0.04429727420210838
1672829349615346400,3.713346435546875,9.806112289428711,-0.09260229021310806,0.044288720935583115
1672829349625292300,3.723292236328125,9.806112289428711,-0.09267966449260712,0.04425623267889023
1672829349635238100,3.733238037109375,9.806113243103027,-0.09265388548374176,0.04424812272191048
1672829349645184300,3.743184326171875,9.806113243103027,-0.09265179187059402,0.04403617978096008
1672829349655130000,3.753130126953125,9.80611515045166,-0.09256857633590698,0.04400887340307236
1672829349665076000,3.763075927734375,9.806117057800293,-0.09238579869270325,0.04398141801357269
1672829349675022000,3.77302197265625,9.80611515045166,-0.0924096331000328,0.04413588345050812
1672829349684968000,3.782968017578125,9.80611515045166,-0.0924113318324089,0.044128820300102234
1672829349694913800,3.792913818359375,9.80611515045166,-0.0923900157213211,0.044100321829319
1672829349704860000,3.80285986328125,9.80611515045166,-0.09246974438428879,0.044014427810907364
1672829349714805800,3.8128056640625,9.806116104125977,-0.09239077568054199,0.04388471692800522
1672829349724751600,3.822751708984375,9.80611801147461,-0.09228987246751785,0.04406330734491348
1672829349734697700,3.83269775390625,9.806118965148926,-0.0921105295419693,0.04395588859915733
1672829349744643600,3.8426435546875,9.806119918823242,-0.09203634411096573,0.043850257992744446
1672829349754589400,3.85258935546875,9.806118965148926,-0.09216772019863129,0.04395072162151337
1672829349764535300,3.862535400390625,9.806117057800293,-0.09227485209703445,0.04392387717962265
1672829349774481400,3.8724814453125,9.806117057800293,-0.09233472496271133,0.043818775564432144
1672829349784427300,3.88242724609375,9.80611515045166,-0.09241686016321182,0.043977271765470505
1672829349794373000,3.892373046875,9.80611515045166,-0.092440664768219,0.044073693454265594
1672829349804319200,3.9023193359375,9.806114196777344,-0.09262320399284363,0.04406862333416939
1672829349814265000,3.91226513671875,9.806116104125977,-0.09246204793453217,0.04377869516611099
1672829349824211000,3.9222109375,9.806050300598145,-0.09714508056640625,0.04839577525854111
1672829349834157000,3.932156982421875,9.806057929992676,-0.09779784828424454,0.045471806079149246
1672829349844103000,3.94210302734375,9.806057929992676,-0.0975731834769249,0.045829709619283676
1672829349854049000,3.952049072265625,9.806057929992676,-0.09768570959568024,0.04558650776743889
1672829349863995000,3.961994873046875,9.806057929992676,-0.0975935235619545,0.045837655663490295
1672829349873941000,3.97194091796875,9.806058883666992,-0.09741019457578659,0.04600946977734566
1672829349883886800,3.981886962890625,9.806058883666992,-0.09734563529491425,0.045866433531045914
1672829349893833000,3.9918330078125,9.806062698364258,-0.09690660238265991,0.04611814394593239
1672829349903778800,4.00177880859375,9.806063652038574,-0.09674829989671707,0.0464615561068058
1672829349913725000,4.011724853515625,9.80606460571289,-0.096830815076828,0.0459660068154335
1672829349923670800,4.0216708984375,9.80606460571289,-0.096861831843853,0.04580412432551384
1672829349933617000,4.031616943359375,9.806063652038574,-0.0970725491642952,0.045621663331985474
1672829349943562800,4.041562744140625,9.806065559387207,-0.09725924581289291,0.04464716464281082
1672829349953508900,4.0515087890625,9.806071281433105,-0.09738688170909882,0.043179769068956375
1672829349963454700,4.061454833984375,9.806073188781738,-0.09719795733690262,0.043208688497543335
1672829349973400800,4.07140087890625,9.80607795715332,-0.09701728075742722,0.042684704065322876
1672829349983347000,4.081346923828125,9.80608081817627,-0.09717582166194916,0.04151204600930214
1672829349993292800,4.091292724609375,9.806081771850586,-0.09700939059257507,0.04177282005548477
1672829350003239000,4.101239013671875,9.806078910827637,-0.09693052619695663,0.04243890941143036
1672829350013184800,4.111184814453125,9.806073188781738,-0.09711786359548569,0.04338059201836586
1672829350023131000,4.121130859375,9.80606746673584,-0.09678622335195541,0.045426834374666214
1672829350033076700,4.13107666015625,9.80606460571289,-0.09684477001428604,0.0457654669880867
1672829350043022800,4.14102294921875,9.806065559387207,-0.09679906070232391,0.04581275209784508
1672829350052968700,4.15096875,9.806059837341309,-0.09674186259508133,0.047000933438539505
1672829350062914800,4.160914794921875,9.806059837341309,-0.09651529043912888,0.04759525507688522
1672829350072860700,4.170860595703125,9.806059837341309,-0.09629198908805847,0.047998908907175064
1672829350082806800,4.180806884765625,9.80600357055664,-0.09878265857696533,0.05405450239777565
1672829350092752600,4.190752685546875,9.806025505065918,-0.09399779140949249,0.05831281095743179
1672829350102698800,4.20069873046875,9.8059720993042,-0.09683870524168015,0.06266259402036667
1672829350112644600,4.21064453125,9.806022644042969,-0.09485228359699249,0.05754294618964195
1672829350122590700,4.2205908203125,9.806020736694336,-0.09525863826274872,0.05714205279946327
1672829350132536600,4.23053662109375,9.806035995483398,-0.09527900815010071,0.054428279399871826
1672829350142482700,4.240482666015625,9.806061744689941,-0.09510385990142822,0.05000694468617439
1672829350152428500,4.250428466796875,9.806082725524902,-0.09489192813634872,0.0460522435605526
1672829350162374700,4.260374755859375,9.806096076965332,-0.09468565136194229,0.04339984059333801
1672829350172320500,4.270320556640625,9.806106567382812,-0.09469407051801682,0.041113290935754776
1672829350182266600,4.2802666015625,9.80611515045166,-0.09467638283967972,0.039213813841342926
1672829350192212500,4.29021240234375,9.80611801147461,-0.09492266923189163,0.03801930695772171
1672829350202158600,4.30015869140625,9.806116104125977,-0.09505649656057358,0.03791126608848572
1672829350212104700,4.310104736328125,9.806108474731445,-0.09521068632602692,0.03955969586968422
1672829350222050600,4.320050537109375,9.80610466003418,-0.09529351443052292,0.040277671068906784
1672829350231996400,4.329996337890625,9.80610466003418,-0.09508756548166275,0.04085636883974075
1672829350241942300,4.3399423828125,9.806110382080078,-0.09470822662115097,0.04002092406153679
1672829350251888400,4.349888427734375,9.806114196777344,-0.09466888755559921,0.03936725854873657
1672829350261834200,4.359834228515625,9.806117057800293,-0.09452921897172928,0.03903031721711159
1672829350271780000,4.369780029296875,9.806113243103027,-0.09483464807271957,0.039210785180330276
1672829350281726200,4.379726318359375,9.806105613708496,-0.09534049779176712,0.03964899852871895
1672829350291672000,4.389672119140625,9.806102752685547,-0.09549607336521149,0.04010444134473801
1672829350301618000,4.399617919921875,9.806105613708496,-0.0954137071967125,0.03981491178274155
1672829350311564000,4.40956396484375,9.80610466003418,-0.09535059332847595,0.040243424475193024
1672829350321510000,4.419510009765625,9.806108474731445,-0.0949840098619461,0.04017617553472519
1672829350331456000,4.4294560546875,9.806107521057129,-0.09498747438192368,0.040054261684417725
1672829350341401900,4.43940185546875,9.806103706359863,-0.09528613090515137,0.040442559868097305
1672829350351348000,4.449347900390625,9.806097030639648,-0.09563576430082321,0.04143569618463516
1672829350361294000,4.459294189453125,9.806086540222168,-0.09610341489315033,0.04241425544023514
1672829350371240200,4.469240234375,9.806079864501953,-0.09632784873247147,0.043470896780490875
1672829350381186300,4.479186279296875,9.806079864501953,-0.09620720893144608,0.044065382331609726
1672829350391132400,4.48913232421875,9.806079864501953,-0.09588389843702316,0.04472822695970535
1672829350401079000,4.4990791015625,9.80607795715332,-0.09551744908094406,0.04581454396247864
1672829350411026400,4.5090263671875,9.806071281433105,-0.09569944441318512,0.04667786508798599
1672829350420971300,4.51897119140625,9.806070327758789,-0.09580200165510178,0.04663999751210213
1672829350430915600,4.52891552734375,9.806068420410156,-0.09600968658924103,0.04675223305821419
1672829350440860200,4.538860107421875,9.80606746673584,-0.09597160667181015,0.04706401005387306
1672829350450804700,4.5488046875,9.806072235107422,-0.09565412253141403,0.046816710382699966
1672829350460749300,4.558749267578125,9.80607795715332,-0.0955723226070404,0.045472823083400726
1672829350470694400,4.5686943359375,9.806081771850586,-0.09553766250610352,0.04511157423257828
1672829350480641800,4.578641845703125,9.806083679199219,-0.09564758837223053,0.04432962089776993
1672829350490590500,4.588590576171875,9.806089401245117,-0.09568381309509277,0.04275842383503914
1672829350500537300,4.598537353515625,9.8060884475708,-0.09593438357114792,0.04260707274079323
1672829350510483200,4.608483154296875,9.80609130859375,-0.09604205936193466,0.041845083236694336
1672829350520429300,4.61842919921875,9.806095123291016,-0.09608658403158188,0.040649499744176865
1672829350530381800,4.6283818359375,9.806099891662598,-0.09596876055002213,0.039656274020671844
1672829350540321300,4.6383212890625,9.80610466003418,-0.09585010260343552,0.0390075221657753
1672829350550260700,4.6482607421875,9.806106567382812,-0.09570977091789246,0.03898283839225769
1672829350560200700,4.65820068359375,9.806102752685547,-0.09599395841360092,0.038936715573072433
1672829350570141400,4.668141357421875,9.806097984313965,-0.09635655581951141,0.03909583017230034
1672829350580083200,4.678083251953125,9.80609130859375,-0.0962483137845993,0.04131351038813591
1672829350590025700,4.688025634765625,9.806095123291016,-0.09612126648426056,0.04039546847343445
1672829350599969500,4.697969482421875,9.8060941696167,-0.09597602486610413,0.04103871434926987
1672829350609914400,4.707914306640625,9.806098937988281,-0.0956215187907219,0.04101535305380821
1672829350619860500,4.717860595703125,9.806099891662598,-0.09525156766176224,0.04124107211828232
1672829350629807600,4.7278076171875,9.806102752685547,-0.09502333402633667,0.041281893849372864
1672829350639755800,4.737755859375,9.806099891662598,-0.09521956741809845,0.041299473494291306
1672829350649704700,4.74770458984375,9.806097030639648,-0.09565222263336182,0.04123743996024132
1672829350659654700,4.757654541015625,9.806092262268066,-0.09601983428001404,0.041335396468639374
1672829350669604900,4.76760498046875,9.8060941696167,-0.09604056924581528,0.04111449420452118
1672829350679555600,4.7775556640625,9.806096076965332,-0.0956394225358963,0.041260652244091034
1672829350689506300,4.78750634765625,9.806100845336914,-0.09526675194501877,0.04127925634384155
1672829350699456500,4.79745654296875,9.806103706359863,-0.09506070613861084,0.04119700938463211
1672829350709402600,4.807402587890625,9.806102752685547,-0.0950174331665039,0.04121603071689606
1672829350719348500,4.817348388671875,9.806099891662598,-0.09531597793102264,0.041439056396484375
1672829350729294300,4.82729443359375,9.806097030639648,-0.0954856276512146,0.041476890444755554
1672829350739240200,4.837240234375,9.806095123291016,-0.09577471762895584,0.04151541367173195
1672829350749186300,4.847186279296875,9.806095123291016,-0.09572000801563263,0.04165281727910042
1672829350759132200,4.857132080078125,9.806097984313965,-0.09540354460477829,0.04166390746831894
1672829350769078000,4.867078125,9.806099891662598,-0.09527484327554703,0.04159783199429512
1672829350779024100,4.877024169921875,9.806099891662598,-0.09522713720798492,0.041612155735492706
1672829350788970000,4.886969970703125,9.806097984313965,-0.09544332325458527,0.04162459075450897
1672829350798915800,4.896915771484375,9.8060941696167,-0.09573355317115784,0.04163713753223419
1672829350808862000,4.906862060546875,9.80609130859375,-0.0959172174334526,0.04185280203819275
1672829350818807800,4.916807861328125,9.806090354919434,-0.09612147510051727,0.04178258404135704
1672829350828753700,4.926753662109375,9.806090354919434,-0.09608342498540878,0.041736070066690445
1672829350838699800,4.93669970703125,9.806093215942383,-0.0957837775349617,0.041871801018714905
1672829350848645600,4.946645751953125,9.806095123291016,-0.09567093104124069,0.04180094227194786
1672829350858591500,4.956591552734375,9.8060941696167,-0.0957188755273819,0.04188920557498932
1672829350868537600,4.96653759765625,9.80609130859375,-0.09592565894126892,0.04189768061041832
1672829350878483500,4.9764833984375,9.806090354919434,-0.0960264727473259,0.04200683534145355
1672829350888429300,4.98642919921875,9.80609130859375,-0.09592163562774658,0.04203587770462036
1672829350898375400,4.99637548828125,9.80609130859375,-0.09594402462244034,0.04196260869503021
1672829350908321300,5.0063212890625,9.80609130859375,-0.09580640494823456,0.04225284606218338
1672829350918267100,5.01626708984375,9.806090354919434,-0.0957961231470108,0.04235778748989105
1672829350928213200,5.026213134765625,9.806092262268066,-0.0957401767373085,0.042380984872579575
1672829350938159000,5.0361591796875,9.80609130859375,-0.09568405151367188,0.042402107268571854
1672829350948105000,5.04610498046875,9.806089401245117,-0.09591548889875412,0.04258453845977783
1672829350958050800,5.05605078125,9.806085586547852,-0.09619986265897751,0.04260329157114029
1672829350967997000,5.065996826171875,9.806082725524902,-0.09645697474479675,0.04254207760095596
1672829350977942800,5.07594287109375,9.806083679199219,-0.0963887870311737,0.042483218014240265
1672829350987888600,5.085888671875,9.806084632873535,-0.0964476615190506,0.04250432923436165
1672829350997834800,5.095834716796875,9.806084632873535,-0.09630321711301804,0.04252476990222931
1672829351007780600,5.105780517578125,9.806087493896484,-0.09613709151744843,0.04252166673541069
1672829351017726500,5.1157265625,9.806087493896484,-0.09605493396520615,0.04241713136434555
1672829351027672600,5.125672607421875,9.806089401245117,-0.09597337245941162,0.042336512356996536
1672829351037618400,5.135618408203125,9.806085586547852,-0.09637992084026337,0.04235871136188507
1672829351047564300,5.145564208984375,9.806084632873535,-0.09641685336828232,0.042358383536338806
1672829351057510400,5.155510498046875,9.806084632873535,-0.09653306007385254,0.042179930955171585
1672829351067456300,5.165456298828125,9.806084632873535,-0.09648812562227249,0.042286090552806854
1672829351077402000,5.175402099609375,9.806084632873535,-0.09644394367933273,0.042106498032808304
1672829351087348200,5.18534814453125,9.806084632873535,-0.0965031161904335,0.042110711336135864
1672829351097294000,5.195294189453125,9.806082725524902,-0.09661675244569778,0.04224118962883949
1672829351107240000,5.205239990234375,9.806079864501953,-0.09699039161205292,0.0421641543507576
1672829351117186000,5.21518603515625,9.806078910827637,-0.09707550704479218,0.042029593139886856
1672829351127132000,5.2251318359375,9.80607795715332,-0.0972617119550705,0.04205792769789696
1672829351137077800,5.235077880859375,9.806078910827637,-0.09718054533004761,0.04196111112833023
1672829351147024000,5.24502392578125,9.806079864501953,-0.09704482555389404,0.04206956923007965
1672829351156969700,5.2549697265625,9.806078910827637,-0.09699023514986038,0.04225553199648857
1672829351166915600,5.26491552734375,9.806079864501953,-0.09691638499498367,0.0421554334461689
1672829351176861400,5.274861328125,9.80608081817627,-0.09692221879959106,0.04210268706083298
1672829351186807600,5.2848076171875,9.806078910827637,-0.0972103402018547,0.041766151785850525
1672829351196753400,5.29475341796875,9.806077003479004,-0.09747149050235748,0.04151622951030731
1672829351206699500,5.304699462890625,9.806077003479004,-0.09756987541913986,0.04140525683760643
1672829351216645400,5.314645263671875,9.806076049804688,-0.09758810698986053,0.04144500941038132
1672829351226591500,5.324591552734375,9.806077003479004,-0.09750352054834366,0.04146023467183113
1672829351236537300,5.334537353515625,9.806079864501953,-0.09733947366476059,0.04149840027093887
1672829351246483500,5.3444833984375,9.806076049804688,-0.09762144088745117,0.041513409465551376
1672829351256429300,5.35442919921875,9.806074142456055,-0.09769479930400848,0.04162931814789772
1672829351266375400,5.36437548828125,9.806075096130371,-0.09779062122106552,0.04156317189335823
1672829351276321300,5.3743212890625,9.806072235107422,-0.0979628935456276,0.041519951075315475
1672829351286267400,5.384267333984375,9.806076049804688,-0.09779240190982819,0.04137461259961128
1672829351296213200,5.394213134765625,9.806074142456055,-0.09788665920495987,0.04138999432325363
1672829351306159400,5.404159423828125,9.806077003479004,-0.09771743416786194,0.041326478123664856
1672829351316105200,5.414105224609375,9.80607795715332,-0.09754981100559235,0.0415261909365654
1672829351326051300,5.42405126953125,9.806076049804688,-0.09764766693115234,0.04156256839632988
1672829351335997200,5.4339970703125,9.806077003479004,-0.09745869785547256,0.04151936247944832
1672829351345943300,5.443943359375,9.806076049804688,-0.09763652086257935,0.04145436733961105
1672829351355889200,5.45388916015625,9.806076049804688,-0.09760869294404984,0.04157058149576187
1672829351365835300,5.463835205078125,9.806076049804688,-0.09762591123580933,0.041685882955789566
1672829351375781400,5.473781494140625,9.806075096130371,-0.09764162451028824,0.04172028228640556
1672829351385727200,5.483727294921875,9.806077003479004,-0.09757743030786514,0.041731610894203186
1672829351395673300,5.49367333984375,9.806078910827637,-0.09731075912714005,0.04166341945528984
1672829351405619200,5.503619140625,9.806079864501953,-0.09720704704523087,0.04167568311095238
1672829351415565300,5.5135654296875,9.80608081817627,-0.09712880849838257,0.041527748107910156
1672829351425511200,5.52351123046875,9.806082725524902,-0.0970289334654808,0.04148545116186142
1672829351435457300,5.533457275390625,9.80608081817627,-0.09705624729394913,0.04170332849025726
1672829351445403100,5.543403076171875,9.80608081817627,-0.0971619039773941,0.041715268045663834
1672829351455349200,5.553349365234375,9.806079864501953,-0.09710647910833359,0.041829176247119904
1672829351465295000,5.563295166015625,9.806079864501953,-0.0971091240644455,0.04194117709994316
1672829351475241200,5.5732412109375,9.806078910827637,-0.09703250229358673,0.04212997108697891
1672829351485187000,5.58318701171875,9.806077003479004,-0.09721708297729492,0.042235273867845535
1672829351495133200,5.59313330078125,9.80607795715332,-0.09729843586683273,0.042054492980241776
1672829351505079000,5.6030791015625,9.806074142456055,-0.09766153991222382,0.042083073407411575
1672829351515025200,5.613025146484375,9.806073188781738,-0.09773583710193634,0.04208800941705704
1672829351524971000,5.622970947265625,9.806071281433105,-0.09783060848712921,0.0422171875834465
1672829351534917000,5.632917236328125,9.806072235107422,-0.0976610854268074,0.042220234870910645
1672829351544863000,5.642863037109375,9.806076049804688,-0.09734026342630386,0.04216711223125458
1672829351554809000,5.65280908203125,9.80608081817627,-0.09695577621459961,0.04216691106557846
1672829351564755000,5.6627548828125,9.806078910827637,-0.09710900485515594,0.042089443653821945
1672829351574701000,5.672701171875,9.806073188781738,-0.09786559641361237,0.04175037145614624
1672829351584647000,5.68264697265625,9.806061744689941,-0.09917265176773071,0.04149898886680603
1672829351594593000,5.692593017578125,9.806048393249512,-0.1004524752497673,0.04146319627761841
1672829351604539100,5.7025390625,9.806050300598145,-0.10031075775623322,0.04139579087495804
1672829351614485000,5.712485107421875,9.806061744689941,-0.09894125908613205,0.04180452227592468
1672829351624431000,5.72243115234375,9.806081771850586,-0.09671462327241898,0.04231300204992294
1672829351634377000,5.732376953125,9.8060884475708,-0.09625252336263657,0.04215719923377037
1672829351644323000,5.742322998046875,9.806081771850586,-0.09684216976165771,0.042157132178545
1672829351654269000,5.75226904296875,9.806071281433105,-0.09796532243490219,0.04192279651761055
1672829351664215000,5.762215087890625,9.806061744689941,-0.09909185767173767,0.04147687554359436
1672829351674161000,5.772160888671875,9.806063652038574,-0.09901361167430878,0.04119642823934555
1672829351684107000,5.78210693359375,9.806070327758789,-0.09818901121616364,0.04148007184267044
1672829351694052900,5.792052978515625,9.806081771850586,-0.09689703583717346,0.04181244224309921
1672829351703999000,5.8019990234375,9.806089401245117,-0.0960521399974823,0.04198196157813072
1672829351713944800,5.81194482421875,9.806090354919434,-0.09601365774869919,0.04190891608595848
1672829351723890700,5.821890625,9.806084632873535,-0.09674958884716034,0.04151703044772148
1672829351733836800,5.8318369140625,9.806074142456055,-0.09792986512184143,0.04123550280928612
1672829351743782700,5.84178271484375,9.80606460571289,-0.09887518733739853,0.0411745123565197
1672829351753728500,5.851728515625,9.80606460571289,-0.09884998202323914,0.04121844097971916
1672829351763674600,5.861674560546875,9.806073188781738,-0.09804785996675491,0.04123784974217415
1672829351773620500,5.871620361328125,9.806084632873535,-0.09694447368383408,0.04141557961702347
1672829351783566300,5.88156640625,9.806090354919434,-0.09615236520767212,0.041489195078611374
1672829351793512400,5.891512451171875,9.806090354919434,-0.09627239406108856,0.041342686861753464
1672829351803458300,5.901458251953125,9.806082725524902,-0.0970856100320816,0.041144080460071564
1672829351813404200,5.911404052734375,9.806072235107422,-0.09830451011657715,0.04086843878030777
1672829351823350300,5.921350341796875,9.80606460571289,-0.09908427298069,0.04085855931043625
1672829351833296100,5.931296142578125,9.80606460571289,-0.09905315190553665,0.04096392169594765
1672829351843242000,5.941241943359375,9.806074142456055,-0.09796811640262604,0.041065480560064316
1672829351853188000,5.95118798828125,9.806084632873535,-0.09692154079675674,0.041452109813690186
1672829351863134000,5.961134033203125,9.806087493896484,-0.09649348258972168,0.04154760390520096
1672829351873079800,5.971079833984375,9.806085586547852,-0.09668783098459244,0.041583284735679626
1672829351883025700,5.981025634765625,9.806078910827637,-0.0974133238196373,0.04137899726629257
1672829351892971800,5.9909716796875,9.806071281433105,-0.09820673614740372,0.041179459542036057
1672829351902917600,6.000917724609375,9.806069374084473,-0.09850892424583435,0.04104045033454895
1672829351912863500,6.010863525390625,9.806071281433105,-0.0983738899230957,0.04108595475554466
1672829351922809600,6.0208095703125,9.806076049804688,-0.09766014665365219,0.04134690389037132
1672829351932755500,6.03075537109375,9.806082725524902,-0.09693702310323715,0.04162531718611717
1672829351942701300,6.040701416015625,9.806083679199219,-0.0968061089515686,0.04155788943171501
1672829351952647400,6.0506474609375,9.80608081817627,-0.09713243693113327,0.04151506349444389
1672829351962593300,6.06059326171875,9.806075096130371,-0.09785006195306778,0.04139259457588196
1672829351972539100,6.0705390625,9.806069374084473,-0.0984756126999855,0.041250694543123245
1672829351982485200,6.0804853515625,9.80606746673584,-0.09855842590332031,0.04129301756620407
1672829351992431000,6.09043115234375,9.806071281433105,-0.0981377586722374,0.04131148383021355
1672829352002377000,6.100376953125,9.806079864501953,-0.0972469225525856,0.041511841118335724
1672829352012323000,6.110322998046875,9.806084632873535,-0.09679174423217773,0.04160666465759277
1672829352022269000,6.12026904296875,9.806083679199219,-0.09682215750217438,0.041642721742391586
1672829352032214800,6.13021484375,9.806079864501953,-0.09722751379013062,0.04169929400086403
1672829352042161000,6.140160888671875,9.806075096130371,-0.09768205881118774,0.04147158935666084
1672829352052106800,6.150106689453125,9.806073188781738,-0.09807223081588745,0.04143088683485985
1672829352062052600,6.160052490234375,9.806073188781738,-0.09797796607017517,0.04136601462960243
1672829352071998700,6.169998779296875,9.80607795715332,-0.09749092906713486,0.04146325960755348
1672829352081944600,6.179944580078125,9.806082725524902,-0.09698475897312164,0.04170401021838188
1672829352091890400,6.189890380859375,9.806085586547852,-0.09650874882936478,0.04177077114582062
1672829352101836300,6.199836181640625,9.806085586547852,-0.09652649611234665,0.041805118322372437
1672829352111782400,6.209782470703125,9.806082725524902,-0.0970337986946106,0.04144931957125664
1672829352121728300,6.219728271484375,9.80608081817627,-0.09727674722671509,0.04132629185914993
1672829352131674400,6.22967431640625,9.806078910827637,-0.09743745625019073,0.041447341442108154
1672829352141620200,6.2396201171875,9.806079864501953,-0.09717273712158203,0.041541874408721924
1672829352151566300,6.24956640625,9.806079864501953,-0.0970805287361145,0.04173633083701134
1672829352161512200,6.25951220703125,9.806083679199219,-0.09670782089233398,0.04195207357406616
1672829352171458300,6.269458251953125,9.806083679199219,-0.09674005210399628,0.04187919199466705
1672829352181404200,6.279404052734375,9.806078910827637,-0.09716884046792984,0.041830673813819885
1672829352191350300,6.289350341796875,9.806075096130371,-0.09767135977745056,0.04178229346871376
1672829352201296600,6.299296630859375,9.806074142456055,-0.09771901369094849,0.04171087592840195
1672829352211242800,6.30924267578125,9.806073188781738,-0.09781637042760849,0.04166790097951889
1672829352221188900,6.31918896484375,9.806075096130371,-0.09774802625179291,0.04176045581698418
1672829352231135200,6.32913525390625,9.80607795715332,-0.0972612127661705,0.04182829335331917
1672829352241081300,6.339081298828125,9.806079864501953,-0.09702510386705399,0.04194033890962601
1672829352251027700,6.34902783203125,9.806081771850586,-0.09702640771865845,0.04186629503965378
1672829352260974000,6.35897412109375,9.80607795715332,-0.09714637696743011,0.04204349219799042
1672829352270920200,6.368920166015625,9.806065559387207,-0.09703608602285385,0.045405350625514984
1672829352280866600,6.378866455078125,9.80605411529541,-0.0969250425696373,0.0478750504553318
1672829352290811100,6.38881103515625,9.806052207946777,-0.09649857878684998,0.049315813928842545
1672829352300755700,6.398755615234375,9.806044578552246,-0.09670053422451019,0.05017342418432236
1672829352310700500,6.408700439453125,9.80606746673584,-0.09564494341611862,0.04791238158941269
1672829352320645400,6.418645263671875,9.806225776672363,-0.08900827914476395,0.019934598356485367
1672829352330590200,6.428590087890625,9.806317329406738,-0.07797285914421082,-0.021206459030508995
1672829352340535600,6.43853564453125,9.806246757507324,-0.06267986446619034,-0.0631856620311737
1672829352350482200,6.448482177734375,9.806215286254883,-0.0601685531437397,-0.07010631263256073
1672829352360429300,6.45842919921875,9.806183815002441,-0.057661790400743484,-0.07626837491989136
1672829352370378000,6.4683779296875,9.806157112121582,-0.05513202026486397,-0.08139509707689285
1672829352380324900,6.478324951171875,9.806142807006836,-0.05127572640776634,-0.08549641817808151
1672829352390276000,6.488276123046875,9.806129455566406,-0.048897016793489456,-0.08839353919029236
1672829352400236000,6.498236083984375,9.80611801147461,-0.04813443869352341,-0.0901099368929863
1672829352410205700,6.508205810546875,9.806106567382812,-0.04797530174255371,-0.09143766760826111
1672829352420108800,6.51810888671875,9.806107521057129,-0.04667943716049194,-0.092063307762146
1672829352430013400,6.528013427734375,9.806159019470215,-0.0457584373652935,-0.08683682233095169
1672829352439921400,6.53792138671875,9.80618953704834,-0.04518438130617142,-0.08365868031978607
1672829352449834200,6.547834228515625,9.806217193603516,-0.0458042286336422,-0.07990629225969315
1672829352459752400,6.55775244140625,9.806234359741211,-0.04583040252327919,-0.07778193056583405
1672829352469677600,6.567677490234375,9.806260108947754,-0.04549111798405647,-0.07466442883014679
1672829352479610000,6.577610107421875,9.806264877319336,-0.04464908689260483,-0.07452221214771271
1672829352489549800,6.5875498046875,9.806270599365234,-0.043549053370952606,-0.07443034648895264
1672829352499497200,6.597497314453125,9.806267738342285,-0.041121985763311386,-0.07616951316595078
1672829352509451500,6.607451416015625,9.806266784667969,-0.03841906413435936,-0.07771018892526627
1672829352519412200,6.617412109375,9.806256294250488,-0.03652655705809593,-0.08001431822776794
1672829352529378800,6.62737890625,9.806246757507324,-0.03470391407608986,-0.08191444724798203
1672829352539349800,6.637349853515625,9.80624008178711,-0.03253672271966934,-0.08360377699136734
1672829352549324300,6.64732421875,9.806227684020996,-0.030176574364304543,-0.08586349338293076
1672829352559300900,6.65730078125,9.806221008300781,-0.028964314609766006,-0.08703506737947464
1672829352569278200,6.6672783203125,9.806225776672363,-0.028422227129340172,-0.08664754778146744
1672829352579244300,6.677244384765625,9.806242942810059,-0.027537740767002106,-0.08504348248243332
1672829352589190100,6.687190185546875,9.80627155303955,-0.027159206569194794,-0.08180731534957886
1672829352599136300,6.69713623046875,9.80628490447998,-0.026566745713353157,-0.08036701381206512
1672829352609082000,6.70708203125,9.806293487548828,-0.026623187586665154,-0.07929974049329758
1672829352619028000,6.717028076171875,9.80631160736084,-0.026748184114694595,-0.07703424245119095
1672829352628974000,6.72697412109375,9.806318283081055,-0.02674979716539383,-0.07611391693353653
1672829352638920000,6.736919921875,9.806320190429688,-0.027024101465940475,-0.07584383338689804
1672829352648865800,6.74686572265625,9.806317329406738,-0.027368804439902306,-0.07600892335176468
1672829352658812000,6.75681201171875,9.806300163269043,-0.028496675193309784,-0.0778346136212349
1672829352668757800,6.7667578125,9.80629825592041,-0.0300408024340868,-0.07749715447425842
1672829352678703600,6.77670361328125,9.806290626525879,-0.031282152980566025,-0.0779089480638504
1672829352688649700,6.786649658203125,9.806282043457031,-0.03338213637471199,-0.07803020626306534
1672829352698595600,6.796595703125,9.806283950805664,-0.036970291286706924,-0.07629792392253876
1672829352708541400,6.80654150390625,9.806281089782715,-0.04007866606116295,-0.0751180574297905
1672829352718487600,6.816487548828125,9.806282043457031,-0.0427892841398716,-0.07327292859554291
1672829352728433400,6.826433349609375,9.80627727508545,-0.04537440091371536,-0.072459377348423
1672829352738379300,6.836379150390625,9.806241989135742,-0.04880697280168533,-0.07497472316026688
1672829352748325400,6.846325439453125,9.806266784667969,-0.05180443823337555,-0.06950318068265915
1672829352758271200,6.856271240234375,9.806257247924805,-0.05254451930522919,-0.0703468918800354
1672829352768217000,6.866217041015625,9.80626106262207,-0.05234469845890999,-0.06991097331047058
1672829352778163200,6.8761630859375,9.806260108947754,-0.05247397720813751,-0.07006163150072098
1672829352788109000,6.886109130859375,9.80626106262207,-0.052742552012205124,-0.06969389319419861
1672829352798055000,6.896054931640625,9.806264877319336,-0.05252637341618538,-0.06924810260534286
1672829352808000800,6.906000732421875,9.806268692016602,-0.05272584781050682,-0.0685833990573883
1672829352817947000,6.91594677734375,9.806264877319336,-0.05302923917770386,-0.06884215772151947
1672829352827892700,6.925892822265625,9.806266784667969,-0.053202755749225616,-0.06848987191915512
1672829352837838600,6.935838623046875,9.806268692016602,-0.053249552845954895,-0.0681266263127327
1672829352847784700,6.94578466796875,9.806269645690918,-0.053294651210308075,-0.0679486021399498
1672829352857730600,6.95573046875,9.806268692016602,-0.05357213318347931,-0.06787338107824326
1672829352867676400,6.965676513671875,9.806270599365234,-0.05355067551136017,-0.06762635707855225
1672829352877622500,6.97562255859375,9.806273460388184,-0.05373654514551163,-0.06718462705612183
1672829352887568400,6.985568359375,9.806273460388184,-0.05372624099254608,-0.06704393029212952
1672829352897514200,6.99551416015625,9.806273460388184,-0.05380725860595703,-0.0669948011636734
1672829352907460400,7.00546044921875,9.8062744140625,-0.05387767031788826,-0.0668172687292099
1672829352917406200,7.01540625,9.806273460388184,-0.05394841358065605,-0.06693833321332932
1672829352927352000,7.02535205078125,9.806249618530273,-0.053675632923841476,-0.07055482268333435
1672829352937298200,7.035298095703125,9.806242942810059,-0.05357586592435837,-0.07157153636217117
1672829352947244000,7.045244140625,9.80626106262207,-0.05358797684311867,-0.06899801641702652
1672829352957190000,7.05518994140625,9.80629825592041,-0.054153911769390106,-0.06308981031179428
1672829352967136000,7.065135986328125,9.806318283081055,-0.05496852472424507,-0.0590960793197155
1672829352977081900,7.075081787109375,9.806330680847168,-0.055393483489751816,-0.056512653827667236
1672829352987028000,7.085028076171875,9.806341171264648,-0.05555107817053795,-0.05456584692001343
1672829352996973800,7.094973876953125,9.806344032287598,-0.0560501366853714,-0.05348885804414749
1672829353006920000,7.104919921875,9.806358337402344,-0.0563974529504776,-0.05057470500469208
1672829353016865800,7.11486572265625,9.80636978149414,-0.05679431930184364,-0.047693755477666855
1672829353026812000,7.12481201171875,9.80638313293457,-0.05911610648036003,-0.0418320894241333
1672829353036757800,7.1347578125,9.806398391723633,-0.0602431558072567,-0.03636104241013527
1672829353046703900,7.144703857421875,9.806404113769531,-0.0620199479162693,-0.03123966045677662
1672829353056649700,7.154649658203125,9.806404113769531,-0.0642106756567955,-0.026510579511523247
1672829353066595800,7.164595947265625,9.80639934539795,-0.066196970641613,-0.023014726117253304
1672829353076541700,7.174541748046875,9.806388854980469,-0.06883147358894348,-0.019908888265490532
1672829353086487800,7.18448779296875,9.806380271911621,-0.0709947794675827,-0.016276981681585312
1672829353096434000,7.194433837890625,9.806361198425293,-0.07420644909143448,-0.012780951336026192
1672829353106379800,7.2043798828125,9.8063383102417,-0.07782945781946182,-0.008084870874881744
1672829353116326000,7.214325927734375,9.806309700012207,-0.08163728564977646,-0.003999811131507158
1672829353126271700,7.224271728515625,9.806281089782715,-0.08509531617164612,-0.0012197236064821482
1672829353136217900,7.2342177734375,9.806264877319336,-0.08690162748098373,0.001796182245016098
1672829353146163700,7.244163818359375,9.806259155273438,-0.08745702356100082,0.004414872732013464
1672829353156109800,7.25410986328125,9.806262016296387,-0.0871289074420929,0.003932506311684847
1672829353166055700,7.2640556640625,9.806262016296387,-0.08717477321624756,0.003479547565802932
1672829353176001800,7.274001708984375,9.806260108947754,-0.08734560757875443,0.004027319606393576
1672829353185947600,7.28394775390625,9.806256294250488,-0.08783715963363647,0.004281982779502869
1672829353195893800,7.293893798828125,9.806252479553223,-0.08809854835271835,0.0061762696132063866
1672829353205839600,7.303839599609375,9.806252479553223,-0.08822028338909149,0.0049782064743340015
1672829353215785700,7.31378564453125,9.806254386901855,-0.08811715990304947,0.0021263216622173786
1672829353225731600,7.323731689453125,9.806259155273438,-0.08763831853866577,-0.0003028112114407122
1672829353235677700,7.333677734375,9.806256294250488,-0.08781351894140244,0.002732116961851716
1672829353245623600,7.34362353515625,9.806265830993652,-0.08682209253311157,0.0022604072000831366
1672829353255569700,7.353569580078125,9.806270599365234,-0.08624481409788132,-0.0013075298629701138
1672829353265515500,7.363515625,9.806281089782715,-0.08505353331565857,-0.00414696428924799
1672829353275461600,7.373461669921875,9.806292533874512,-0.08344393968582153,-0.007068580016493797
1672829353285407500,7.383407470703125,9.806297302246094,-0.08245404064655304,-0.011380726471543312
1672829353295353600,7.393353515625,9.806302070617676,-0.08124515414237976,-0.014933501370251179
1672829353305299500,7.403299560546875,9.80631160736084,-0.07970669865608215,-0.01733171008527279
1672829353315245600,7.41324560546875,9.806316375732422,-0.0781254768371582,-0.021213263273239136
1672829353325191700,7.423191650390625,9.806319236755371,-0.07709476351737976,-0.023712750524282455
1672829353335137500,7.433137451171875,9.80632495880127,-0.07563123106956482,-0.02584538795053959
1672829353345083600,7.443083740234375,9.806329727172852,-0.07420522719621658,-0.027781615033745766
1672829353355029500,7.453029541015625,9.806333541870117,-0.07300490885972977,-0.029422368854284286
1672829353364975600,7.4629755859375,9.806341171264648,-0.07185612618923187,-0.03006632626056671
1672829353374921500,7.47292138671875,9.80634880065918,-0.07040593028068542,-0.03101535141468048
1672829353384867600,7.48286767578125,9.806356430053711,-0.06891234219074249,-0.03194255754351616
1672829353394813400,7.4928134765625,9.806373596191406,-0.06860269606113434,-0.02695464715361595
1672829353404759600,7.502759521484375,9.806378364562988,-0.06887847930192947,-0.024463992565870285
1672829353414705400,7.512705322265625,9.806384086608887,-0.06900051236152649,-0.021395444869995117
1672829353424651500,7.522651611328125,9.806387901306152,-0.0691593587398529,-0.01933308131992817
1672829353434597400,7.532597412109375,9.806387901306152,-0.06944578886032104,-0.01822068728506565
1672829353444543500,7.54254345703125,9.806389808654785,-0.06951109319925308,-0.016793373972177505
1672829353454489300,7.5524892578125,9.806389808654785,-0.06946759670972824,-0.017119035124778748
1672829353464435500,7.562435546875,9.806387901306152,-0.06905989348888397,-0.01967320218682289
1672829353474381300,7.57238134765625,9.806385040283203,-0.06859633326530457,-0.021833574399352074
1672829353484327400,7.582327392578125,9.806387901306152,-0.0679306611418724,-0.023270221427083015
1672829353494273300,7.592273193359375,9.806388854980469,-0.06742678582668304,-0.02406495437026024
1672829353504219400,7.602219482421875,9.806388854980469,-0.06704597920179367,-0.025285350158810616
1672829353514165200,7.612165283203125,9.806387901306152,-0.06654328107833862,-0.02644522301852703
1672829353524111400,7.622111328125,9.806387901306152,-0.06623966246843338,-0.02752109244465828
1672829353534057500,7.632057373046875,9.80638599395752,-0.06623215228319168,-0.028319181874394417
1672829353544003300,7.64200341796875,9.80638599395752,-0.06586605310440063,-0.02927701734006405
1672829353553949400,7.651949462890625,9.80638313293457,-0.06574170291423798,-0.03031587228178978
1672829353563895300,7.661895263671875,9.806382179260254,-0.06522653996944427,-0.03133038803935051
1672829353573841400,7.67184130859375,9.80638599395752,-0.06401459872722626,-0.032742638140916824
1672829353583787300,7.681787353515625,9.806387901306152,-0.06285902857780457,-0.03459852933883667
1672829353593733400,7.6917333984375,9.80638599395752,-0.06188220530748367,-0.03684486076235771
1672829353603679200,7.70167919921875,9.806385040283203,-0.06123226135969162,-0.038214005529880524
1672829353613625300,7.711625244140625,9.806377410888672,-0.06082174554467201,-0.04053933545947075
1672829353623571200,7.7215712890625,9.806374549865723,-0.05991386994719505,-0.042612120509147644
1672829353633517300,7.731517333984375,9.80633544921875,-0.05625567585229874,-0.054753538221120834
1672829353643463200,7.741463134765625,9.806264877319336,-0.049392782151699066,-0.07159635424613953
1672829353653409300,7.7514091796875,9.806119918823242,-0.03940287604928017,-0.0939805805683136
1672829353663355100,7.761355224609375,9.805939674377441,-0.032020170241594315,-0.11360873281955719
1672829353673301200,7.77130126953125,9.805788040161133,-0.028521552681922913,-0.12686079740524292
1672829353683247000,7.7812470703125,9.805685997009277,-0.028733355924487114,-0.13447825610637665
1672829353693193200,7.791193115234375,9.805627822875977,-0.03176455199718475,-0.13796983659267426
1672829353703139000,7.80113916015625,9.805562973022461,-0.03766752406954765,-0.14102943241596222
1672829353713085200,7.811085205078125,9.80551528930664,-0.04559466242790222,-0.1420324742794037
1672829353723031000,7.821031005859375,9.80551815032959,-0.05453106760978699,-0.13869160413742065
1672829353732977200,7.83097705078125,9.805524826049805,-0.06420387327671051,-0.13392651081085205
1672829353742923000,7.840923095703125,9.805556297302246,-0.07421655207872391,-0.12634265422821045
1672829353752869000,7.850869140625,9.805580139160156,-0.07426631450653076,-0.12436056137084961
1672829353762815200,7.860815185546875,9.805597305297852,-0.0745423436164856,-0.1229081079363823
1672829353772761000,7.870760986328125,9.805583000183105,-0.07520730048418045,-0.12352898716926575
1672829353782707200,7.880707275390625,9.805573463439941,-0.07523849606513977,-0.1243758574128151
1672829353792653000,7.890653076171875,9.805547714233398,-0.07510874420404434,-0.12644429504871368
1672829353802599200,7.90059912109375,9.80551528930664,-0.07381660491228104,-0.12964165210723877
1672829353812545000,7.910544921875,9.805500030517578,-0.0725863128900528,-0.13151642680168152
1672829353822491100,7.9204912109375,9.805484771728516,-0.07065917551517487,-0.13358962535858154
1672829353832437000,7.93043701171875,9.805472373962402,-0.06926819682121277,-0.1352842003107071
1672829353842383000,7.940383056640625,9.805485725402832,-0.06833115220069885,-0.1347840279340744
1672829353852329000,7.950328857421875,9.805508613586426,-0.06728041917085648,-0.13358190655708313
1672829353862275000,7.960275146484375,9.805500984191895,-0.06788676977157593,-0.13387848436832428
1672829353872221000,7.970220947265625,9.805471420288086,-0.0690852701663971,-0.13546279072761536
1672829353882167000,7.9801669921875,9.805452346801758,-0.06994597613811493,-0.136392742395401
1672829353892113000,7.99011279296875,9.805344581604004,-0.0714535191655159,-0.14319419860839844
1672829353902059000,8.00005908203125,9.805195808410645,-0.0689338967204094,-0.15421314537525177
1672829353912004900,8.0100048828125,9.805013656616211,-0.06323330104351044,-0.16761259734630585
1672829353921951000,8.019950927734374,9.80479621887207,-0.053017377853393555,-0.18320241570472717
1672829353931896800,8.029896728515626,9.804560661315918,-0.044271428138017654,-0.19751395285129547
1672829353941843000,8.039843017578125,9.804471015930176,-0.03922203555703163,-0.20294184982776642
1672829353951788800,8.049788818359374,9.804503440856934,-0.03916606679558754,-0.20145945250988007
1672829353961735000,8.05973486328125,9.804516792297363,-0.04235606640577316,-0.20010583102703094
1672829353971680800,8.0696806640625,9.804598808288574,-0.04673103243112564,-0.19507096707820892
1672829353981627000,8.079626953125,9.804732322692871,-0.05233006551861763,-0.1867450326681137
1672829353991573000,8.089572998046876,9.80487060546875,-0.05929305776953697,-0.1771039366722107
1672829354001518800,8.099518798828125,9.804954528808594,-0.06653451174497604,-0.1697809100151062
1672829354011465000,8.10946484375,9.805036544799805,-0.07303804159164429,-0.16224315762519836
1672829354021410800,8.119410888671876,9.805092811584473,-0.07838083803653717,-0.15624579787254333
1672829354031357000,8.12935693359375,9.805119514465332,-0.08110558986663818,-0.15306305885314941
1672829354041303000,8.139302978515625,9.805130958557129,-0.08222019672393799,-0.15175090730190277
1672829354051249000,8.149248779296874,9.805079460144043,-0.08288011699914932,-0.15474426746368408
1672829354061194800,8.15919482421875,9.805035591125488,-0.08641352504491806,-0.15558019280433655
1672829354071140600,8.169140625,9.805020332336426,-0.09419504553079605,-0.15198132395744324
1672829354081086500,8.17908642578125,9.804964065551758,-0.10338518768548965,-0.14957459270954132
1672829354091032300,8.1890322265625,9.804903030395508,-0.11000103503465652,-0.14891785383224487
1672829354100978400,8.198978515625,9.80484390258789,-0.11521478742361069,-0.14888368546962738
1672829354110924300,8.20892431640625,9.804729461669922,-0.1195152997970581,-0.1529160887002945
1672829354120870400,8.218870361328126,9.804681777954102,-0.12254717200994492,-0.15360954403877258
1672829354130816500,8.22881640625,9.804624557495117,-0.1236836314201355,-0.15629208087921143
1672829354140763000,8.238762939453125,9.804703712463379,-0.12176389247179031,-0.15277571976184845
1672829354150709200,8.248709228515626,9.804789543151855,-0.11977583914995193,-0.1487927883863449
1672829354160656100,8.25865625,9.804913520812988,-0.12073101103305817,-0.13955920934677124
1672829354170604300,8.268604248046875,9.805030822753906,-0.12465409934520721,-0.12734469771385193
1672829354180554800,8.2785546875,9.805083274841309,-0.13005761802196503,-0.11757513135671616
1672829354190510800,8.2885107421875,9.805034637451172,-0.13432352244853973,-0.1167885810136795
1672829354200438500,8.2984384765625,9.80492877960205,-0.13300110399723053,-0.1268537938594818
1672829354210376200,8.308376220703124,9.804786682128906,-0.1293778270483017,-0.14068761467933655
1672829354220314400,8.318314453125,9.804765701293945,-0.12615957856178284,-0.14502747356891632
1672829354230253300,8.32825341796875,9.804835319519043,-0.12200910598039627,-0.14396308362483978
1672829354240193800,8.33819384765625,9.80496597290039,-0.1182686984539032,-0.13800093531608582
1672829354250135300,8.34813525390625,9.80511474609375,-0.11621566861867905,-0.12887351214885712
1672829354260078600,8.35807861328125,9.805246353149414,-0.11707650870084763,-0.11756832152605057
1672829354270023200,8.368023193359376,9.805343627929688,-0.12067768722772598,-0.10511895269155502
1672829354279969300,8.37796923828125,9.805395126342773,-0.12357475608587265,-0.09670061618089676
1672829354289917000,8.3879169921875,9.805407524108887,-0.12320499122142792,-0.09585531800985336
1672829354299865900,8.397865966796875,9.805402755737305,-0.12423460185527802,-0.09504219889640808
1672829354309816000,8.407816162109375,9.805346488952637,-0.1269873082637787,-0.09715468436479568
1672829354319767000,8.41776708984375,9.805315971374512,-0.12730616331100464,-0.09978500753641129
1672829354329718800,8.42771875,9.80528450012207,-0.12494900822639465,-0.10565249621868134
1672829354339671000,8.437671142578125,9.805273056030273,-0.12022212147712708,-0.11203693598508835
1672829354349623600,8.44762353515625,9.805259704589844,-0.11479461938142776,-0.11870334297418594
1672829354359574300,8.45757421875,9.805261611938477,-0.11160009354352951,-0.1215721145272255
1672829354369520400,8.467520263671876,9.805339813232422,-0.1097874566912651,-0.11685114353895187
1672829354379466200,8.47746630859375,9.805398941040039,-0.1098838597536087,-0.11162419617176056
1672829354389412000,8.487412109375,9.805441856384277,-0.1119966134428978,-0.10563268512487411
1672829354399358200,8.497358154296874,9.805468559265137,-0.1158851906657219,-0.09875920414924622
1672829354409304000,8.507303955078125,9.805399894714355,-0.12092989683151245,-0.09949043393135071
1672829354419250000,8.51725,9.805268287658691,-0.1256897896528244,-0.10633611679077148
1672829354429196000,8.527196044921874,9.805159568786621,-0.1269650012254715,-0.11444114148616791
1672829354439142000,8.537141845703125,9.805142402648926,-0.12486583739519119,-0.1182112991809845
1672829354449087700,8.547087646484375,9.805155754089355,-0.1246236190199852,-0.11743008345365524
1672829354459033900,8.557033935546874,9.805238723754883,-0.12845204770565033,-0.10573995858430862
1672829354468979700,8.566979736328125,9.805298805236816,-0.1338915377855301,-0.0927196517586708
1672829354478925600,8.576925537109375,9.805323600769043,-0.139090433716774,-0.08167725801467896
1672829354488871700,8.58687158203125,9.805327415466309,-0.144821897149086,-0.07055148482322693
1672829354498817500,8.596817626953126,9.805294036865234,-0.14687480032444,-0.07090631127357483
1672829354508763400,8.606763427734375,9.805286407470703,-0.14195558428764343,-0.08114667981863022
1672829354518709200,8.616709228515624,9.805281639099121,-0.13480311632156372,-0.09307199716567993
1672829354528655400,8.6266552734375,9.805270195007324,-0.1293114870786667,-0.1016964316368103
1672829354538601200,8.636601318359375,9.805309295654297,-0.12636612355709076,-0.10162556916475296
1672829354548547000,8.646547119140624,9.805400848388672,-0.12510356307029724,-0.09403810650110245
1672829354558493200,8.6564931640625,9.805450439453125,-0.12693215906620026,-0.0861111730337143
1672829354568439000,8.66643896484375,9.805411338806152,-0.12798869609832764,-0.08900861442089081
1672829354578385000,8.676385009765625,9.805331230163574,-0.1270662248134613,-0.0986168310046196
1672829354588331000,8.6863310546875,9.805294036865234,-0.12318946421146393,-0.10682091861963272
1672829354598276900,8.69627685546875,9.805317878723145,-0.11517371237277985,-0.1133597195148468
1672829354608222700,8.70622265625,9.80533504486084,-0.10374259948730469,-0.12265246361494064
1672829354618168800,8.7161689453125,9.805391311645508,-0.09189248830080032,-0.12748008966445923
1672829354628114700,8.72611474609375,9.805401802062988,-0.08475326001644135,-0.1315738558769226
1672829354638060500,8.736060546875,9.805416107177734,-0.08421697467565536,-0.13085101544857025
1672829354648006700,8.746006591796874,9.805503845214844,-0.0890309140086174,-0.12066695839166641
1672829354657952500,8.755952392578125,9.80560302734375,-0.09651804715394974,-0.10586922615766525
1672829354667898600,8.765898681640625,9.805647850036621,-0.10540769249200821,-0.09241395443677902
1672829354677844500,8.775844482421874,9.805684089660645,-0.11179821193218231,-0.08024989068508148
1672829354687790600,8.78579052734375,9.805689811706543,-0.11317066848278046,-0.07765689492225647
1672829354697736400,8.795736328125,9.805680274963379,-0.10904085636138916,-0.08445192128419876
1672829354707682600,8.8056826171875,9.805615425109863,-0.10063455253839493,-0.1007726639509201
1672829354717628400,8.81562841796875,9.805571556091309,-0.09276168793439865,-0.11203297227621078
1672829354727574500,8.825574462890625,9.805692672729492,-0.08990506082773209,-0.10341084748506546
1672829354737520600,8.835520751953124,9.805850982666016,-0.09112919121980667,-0.08576305955648422
1672829354747466500,8.845466552734376,9.805989265441895,-0.09663663804531097,-0.06008755788207054
1672829354757412600,8.85541259765625,9.806070327758789,-0.09986169636249542,-0.03765184432268143
1672829354767358500,8.8653583984375,9.806048393249512,-0.10286714136600494,-0.03485628217458725
1672829354777304600,8.8753046875,9.806025505065918,-0.10556910187005997,-0.03314744308590889
1672829354787250400,8.88525048828125,9.805957794189453,-0.11410834640264511,-0.024064457044005394
1672829354797196500,8.895196533203125,9.805927276611328,-0.11640091240406036,-0.024937409907579422
1672829354807142400,8.905142333984376,9.80589771270752,-0.11870710551738739,-0.025640761479735374
1672829354817088500,8.915088623046875,9.805868148803711,-0.12121611088514328,-0.025388730689883232
1672829354827034400,8.925034423828125,9.805854797363281,-0.12219972163438797,-0.02551506832242012
1672829354836980500,8.93498046875,9.805864334106445,-0.12112389504909515,-0.027487074956297874
1672829354846926300,8.94492626953125,9.805866241455078,-0.12059096992015839,-0.029005683958530426
1672829354856872400,8.95487255859375,9.805865287780762,-0.12018665671348572,-0.0309442188590765
1672829354866818300,8.964818359375,9.805867195129395,-0.11959997564554214,-0.032475318759679794
1672829354876764400,8.974764404296875,9.805866241455078,-0.119429811835289,-0.033459290862083435
1672829354886710300,8.984710205078125,9.805866241455078,-0.11936313658952713,-0.03369129076600075
1672829354896656400,8.994656494140624,9.805862426757812,-0.11959689855575562,-0.03360022231936455
1672829354906602200,9.004602294921876,9.805862426757812,-0.11973750591278076,-0.033417459577322006
1672829354916548400,9.01454833984375,9.80586051940918,-0.12007379531860352,-0.032853931188583374
1672829354926494200,9.024494140625,9.80585765838623,-0.12028179317712784,-0.03244328871369362
1672829354936440300,9.0344404296875,9.805859565734863,-0.1202683076262474,-0.03216484189033508
1672829354946386200,9.04438623046875,9.80586051940918,-0.1201772540807724,-0.0324469730257988
1672829354956332300,9.054332275390625,9.80586051940918,-0.12010924518108368,-0.032834459096193314
1672829354966278400,9.0642783203125,9.805861473083496,-0.11983346939086914,-0.033509161323308945
1672829354976224300,9.074224365234375,9.80585765838623,-0.11998552829027176,-0.03375449404120445
1672829354986170400,9.08417041015625,9.805856704711914,-0.12003377825021744,-0.0340895839035511
1672829354996116200,9.0941162109375,9.805856704711914,-0.11988603323698044,-0.03460703417658806
1672829355006062300,9.104062255859375,9.805856704711914,-0.119715116918087,-0.034894704818725586
1672829355016008200,9.11400830078125,9.80586051940918,-0.11909393221139908,-0.03614092990756035
1672829355025954300,9.123954345703124,9.805863380432129,-0.1184755191206932,-0.03748530521988869
1672829355035900200,9.133900146484375,9.805864334106445,-0.11788050830364227,-0.038805898278951645
1672829355045846300,9.14384619140625,9.805869102478027,-0.11729934811592102,-0.03959181159734726
1672829355055792000,9.153792236328124,9.805864334106445,-0.11724980175495148,-0.040806423872709274
1672829355065738200,9.16373828125,9.805867195129395,-0.11688816547393799,-0.04125484824180603
1672829355075684000,9.17368408203125,9.805866241455078,-0.1165052205324173,-0.04224344715476036
1672829355085630200,9.183630126953124,9.805865287780762,-0.11620297282934189,-0.043448805809020996
1672829355095576000,9.193576171875,9.805864334106445,-0.11592452228069305,-0.04455914348363876
1672829355105522200,9.203522216796875,9.805861473083496,-0.11576245725154877,-0.045448921620845795
1672829355115468000,9.213468017578125,9.805872917175293,-0.1142222061753273,-0.0466698482632637
1672829355125414100,9.2234140625,9.805886268615723,-0.1127910390496254,-0.047542981803417206
1672829355135360000,9.233360107421875,9.805896759033203,-0.11151602864265442,-0.0484670028090477
1672829355145306000,9.24330615234375,9.805910110473633,-0.11000131070613861,-0.04920486360788345
1672829355155252000,9.253251953125,9.805924415588379,-0.10855824500322342,-0.04955577105283737
1672829355165198000,9.263197998046875,9.80593490600586,-0.10713960975408554,-0.05036822706460953
1672829355175144000,9.27314404296875,9.805949211120605,-0.10551870614290237,-0.05111033469438553
1672829355185090000,9.283090087890624,9.80595874786377,-0.10415246337652206,-0.051987625658512115
1672829355195036200,9.2930361328125,9.805971145629883,-0.102707639336586,-0.05256671831011772
1672829355204982000,9.30298193359375,9.805977821350098,-0.10208537429571152,-0.05260811001062393
1672829355214928100,9.31292822265625,9.805977821350098,-0.1013934537768364,-0.053923506289720535
1672829355224874000,9.3228740234375,9.805985450744629,-0.10022895783185959,-0.05454891175031662
1672829355234820000,9.332820068359375,9.805997848510742,-0.0984889566898346,-0.05565524846315384
1672829355244766000,9.342765869140624,9.80600643157959,-0.0970541462302208,-0.05661546438932419
1672829355254712000,9.352712158203126,9.806015968322754,-0.0957229807972908,-0.05731036514043808
1672829355264658000,9.362657958984375,9.806024551391602,-0.09460172802209854,-0.057653218507766724
1672829355274604000,9.37260400390625,9.806035041809082,-0.09347163140773773,-0.05770600587129593
1672829355284550000,9.3825498046875,9.80604362487793,-0.09264878928661346,-0.05757739394903183
1672829355294496000,9.39249609375,9.806055068969727,-0.0916552022099495,-0.05714019387960434
1672829355304441900,9.40244189453125,9.806068420410156,-0.09094447642564774,-0.055924609303474426
1672829355314388000,9.412387939453126,9.806076049804688,-0.09018566459417343,-0.055878691375255585
1672829355324333800,9.422333740234375,9.806087493896484,-0.08919694274663925,-0.05548127368092537
1672829355334280000,9.432280029296875,9.806098937988281,-0.088021419942379,-0.05527554452419281
1672829355344225800,9.442225830078126,9.806111335754395,-0.08653455972671509,-0.055459436029195786
1672829355354172000,9.452171875,9.806123733520508,-0.08531493693590164,-0.05509555712342262
1672829355364117800,9.46211767578125,9.806132316589355,-0.08401347696781158,-0.05564500018954277
1672829355374063900,9.47206396484375,9.80614185333252,-0.08255377411842346,-0.05615060031414032
1672829355384009700,9.482009765625,9.806147575378418,-0.08111829310655594,-0.057202279567718506
1672829355393955800,9.491955810546875,9.80615520477295,-0.07948101311922073,-0.05819273740053177
1672829355403901700,9.501901611328124,9.806159973144531,-0.07795517891645432,-0.05947614088654518
1672829355413847800,9.511847900390626,9.806246757507324,-0.08144719153642654,-0.035870958119630814
1672829355423794000,9.5217939453125,9.80626106262207,-0.08701135963201523,-0.007665828336030245
1672829355433739800,9.53173974609375,9.80624008178711,-0.08962938189506531,0.0036669932305812836
1672829355443686000,9.541685791015626,9.806246757507324,-0.08863379806280136,0.006242912262678146
1672829355453631700,9.5516318359375,9.8062744140625,-0.08588084578514099,0.0019381260499358177
1672829355463577900,9.561577880859375,9.806303977966309,-0.08221889287233353,-0.004559970926493406
1672829355473523700,9.571523681640626,9.806319236755371,-0.08011037111282349,-0.008169041015207767
1672829355483469800,9.5814697265625,9.806327819824219,-0.07874944061040878,-0.01104859821498394
1672829355493415700,9.591415771484375,9.806333541870117,-0.07849575579166412,-0.007621964439749718
1672829355503361800,9.60136181640625,9.8063325881958,-0.07851428538560867,-0.00809499528259039
1672829355513307600,9.6113076171875,9.806334495544434,-0.0787063017487526,0.003208200680091977
1672829355523253800,9.621253662109375,9.806319236755371,-0.08032254874706268,0.005918316077440977
1672829355533199600,9.63119970703125,9.806307792663574,-0.0816722959280014,0.007289638742804527
1672829355543145700,9.641145751953125,9.806302070617676,-0.08241716027259827,0.005811181850731373
1672829355553091600,9.651091552734375,9.806297302246094,-0.08312364667654037,0.003992118407040834
1672829355563037700,9.66103759765625,9.806264877319336,-0.08650804311037064,0.00888380128890276
1672829355572983600,9.670983642578125,9.806200981140137,-0.09167642891407013,0.020170962437987328
1672829355582929700,9.6809296875,9.80608081817627,-0.09886141121387482,0.03717871010303497
1672829355592875500,9.69087548828125,9.805949211120605,-0.1041404977440834,0.0538640171289444
1672829355602821600,9.700821533203126,9.805822372436523,-0.1091947928071022,0.06573835015296936
1672829355612767500,9.710767578125,9.80571460723877,-0.11282023042440414,0.0749531164765358
1672829355622713600,9.720713623046874,9.805623054504395,-0.11594387143850327,0.0819116085767746
1672829355632659500,9.730659423828126,9.805463790893555,-0.12023096531629562,0.0939025804400444
1672829355642605600,9.74060546875,9.805273056030273,-0.12606680393218994,0.10541337728500366
1672829355652551700,9.7505517578125,9.805066108703613,-0.13287901878356934,0.11587044596672058
1672829355662497500,9.76049755859375,9.80479621887207,-0.1403597891330719,0.12901455163955688
1672829355672443600,9.770443603515625,9.804415702819824,-0.14935319125652313,0.14671123027801514
1672829355682389500,9.780389404296875,9.803932189941406,-0.16061931848526,0.16582566499710083
1672829355692335600,9.790335693359374,9.803462028503418,-0.17011626064777374,0.1832398921251297
1672829355702281500,9.800281494140625,9.803067207336426,-0.1785622239112854,0.1959024965763092
1672829355712227600,9.8102275390625,9.80301284790039,-0.18261472880840302,0.19487448036670685
1672829355722173400,9.82017333984375,9.803099632263184,-0.18183867633342743,0.19118191301822662
1672829355732119600,9.83011962890625,9.803377151489258,-0.18051476776599884,0.177757129073143
1672829355742065400,9.8400654296875,9.803337097167969,-0.18346935510635376,0.1769305020570755
1672829355752011500,9.850011474609374,9.803247451782227,-0.18786104023456573,0.17730888724327087
1672829355761957400,9.859957275390625,9.803085327148438,-0.1930251270532608,0.1807098388671875
1672829355771903500,9.869903564453125,9.80294132232666,-0.19739507138729095,0.18379004299640656
1672829355781849300,9.879849365234374,9.802887916564941,-0.20097000896930695,0.18272578716278076
1672829355791795500,9.88979541015625,9.802985191345215,-0.20362292230129242,0.17440077662467957
1672829355801741300,9.8997412109375,9.803024291992188,-0.20444586873054504,0.17118597030639648
1672829355811687400,9.9096875,9.802980422973633,-0.20795363187789917,0.16949722170829773
1672829355821633300,9.91963330078125,9.802865028381348,-0.21172161400318146,0.1714484691619873
1672829355831579400,9.929579345703125,9.802657127380371,-0.21711638569831848,0.17651349306106567
1672829355841525200,9.939525146484375,9.802470207214355,-0.2209959477186203,0.18202000856399536
1672829355851471400,9.949471435546876,9.802453994750977,-0.22034898400306702,0.18364989757537842
1672829355861417500,9.95941748046875,9.802637100219727,-0.2160453498363495,0.17895103991031647
1672829355871363600,9.969363525390625,9.802961349487305,-0.20814760029315948,0.17029203474521637
1672829355881309700,9.979309814453124,9.803272247314453,-0.20096956193447113,0.16083668172359467
1672829355891255800,9.989255859375,9.803486824035645,-0.1961032599210739,0.15354983508586884
1672829355901202200,9.9992021484375,9.803650856018066,-0.19308723509311676,0.14671042561531067
1672829355911148500,10.0091484375,9.803744316101074,-0.19269220530986786,0.14088349044322968
1672829355921094100,10.01909423828125,9.803664207458496,-0.19505879282951355,0.1431657373905182
1672829355931039700,10.029039794921875,9.803505897521973,-0.19882233440876007,0.14872905611991882
1672829355940985600,10.038985595703124,9.803311347961426,-0.2020455002784729,0.15700246393680573
1672829355950931500,10.048931396484376,9.803292274475098,-0.20201480388641357,0.15829674899578094
1672829355960877300,10.058877197265625,9.803458213806152,-0.1994164139032364,0.15110817551612854
1672829355970823200,10.0688232421875,9.803666114807129,-0.1969796121120453,0.1404120773077011
1672829355980769300,10.078769287109376,9.80382251739502,-0.1942654699087143,0.1331089586019516
1672829355990715400,10.08871533203125,9.804037094116211,-0.1913425475358963,0.12092357873916626
1672829356000661500,10.09866162109375,9.804266929626465,-0.18868501484394073,0.10552284866571426
1672829356010609400,10.108609375,9.804402351379395,-0.18731792271137238,0.09478295594453812
1672829356020561400,10.1185615234375,9.804402351379395,-0.1890982836484909,0.09116854518651962
1672829356030518500,10.1285185546875,9.804286003112793,-0.19149646162986755,0.0983632430434227
1672829356040482600,10.138482666015625,9.804113388061523,-0.19532246887683868,0.1077248603105545
1672829356050454000,10.1484541015625,9.804039001464844,-0.1968381404876709,0.11160536110401154
1672829356060430800,10.158430908203124,9.804179191589355,-0.19522559642791748,0.10175024718046188
1672829356070284000,10.168283935546874,9.804445266723633,-0.1909177005290985,0.08234483003616333
1672829356080151000,10.178151123046876,9.804680824279785,-0.18690432608127594,0.06081948056817055
1672829356090024400,10.1880244140625,9.804776191711426,-0.1859196573495865,0.04668974131345749
1672829356099906800,10.19790673828125,9.804719924926758,-0.18866582214832306,0.04755450785160065
1672829356109800400,10.207800537109375,9.804584503173828,-0.1933547556400299,0.05604120343923569
1672829356119706600,10.21770654296875,9.804397583007812,-0.19824542105197906,0.06983184814453125
1672829356129627000,10.227626953125,9.80429744720459,-0.20041102170944214,0.07722887396812439
1672829356139561200,10.237561279296875,9.804255485534668,-0.2012350708246231,0.0804322212934494
1672829356149510000,10.247510009765625,9.804241180419922,-0.20188140869140625,0.08051364868879318
1672829356159472000,10.25747216796875,9.804247856140137,-0.20217402279376984,0.0790020078420639
1672829356169446700,10.26744677734375,9.8042631149292,-0.2023279070854187,0.0766487792134285
1672829356179432000,10.277431884765624,9.804329872131348,-0.20085306465625763,0.07192474603652954
1672829356189426000,10.287426025390625,9.80439281463623,-0.19907206296920776,0.06817363947629929
1672829356199426300,10.29742626953125,9.80439567565918,-0.1987834870815277,0.06848170608282089
1672829356209430800,10.3074306640625,9.804410934448242,-0.19683228433132172,0.07186563313007355
1672829356219436800,10.317436767578124,9.80446720123291,-0.19394397735595703,0.07204515486955643
1672829356229419800,10.327419677734374,9.804445266723633,-0.19305841624736786,0.0772286057472229
1672829356239366000,10.337365966796876,9.804365158081055,-0.19321636855602264,0.08641689270734787
1672829356249311700,10.347311767578125,9.804315567016602,-0.19306088984012604,0.09216389805078506
1672829356259257900,10.3572578125,9.804372787475586,-0.19190451502799988,0.08860822021961212
1672829356269203700,10.36720361328125,9.804405212402344,-0.19130821526050568,0.08619413524866104
1672829356279149800,10.37714990234375,9.804434776306152,-0.19096700847148895,0.08345426619052887
1672829356289095700,10.387095703125,9.804544448852539,-0.18694642186164856,0.07969997078180313
1672829356299041800,10.397041748046876,9.804732322692871,-0.1814049929380417,0.06852520257234573
1672829356308987600,10.406987548828125,9.804868698120117,-0.17717282474040985,0.059596311300992966
1672829356318933800,10.416933837890625,9.804898262023926,-0.17543385922908783,0.05989345535635948
1672829356328879600,10.426879638671876,9.80489730834961,-0.1748543083667755,0.06171388924121857
1672829356338825700,10.43682568359375,9.804871559143066,-0.17454105615615845,0.06635475903749466
1672829356348771600,10.446771484375,9.804896354675293,-0.17367097735404968,0.06500642001628876
1672829356358717700,10.4567177734375,9.804953575134277,-0.1720302551984787,0.06055149808526039
1672829356368663600,10.46666357421875,9.805106163024902,-0.16768695414066315,0.04642060399055481
1672829356378609700,10.476609619140625,9.805255889892578,-0.16214944422245026,0.03245292603969574
1672829356388555500,10.486555419921874,9.80540943145752,-0.15503527224063873,0.01723979227244854
1672829356398501600,10.496501708984376,9.805583953857422,-0.14448584616184235,0.0038550342433154583
1672829356408447500,10.506447509765625,9.805706977844238,-0.1341000348329544,-0.022496579214930534
1672829356418393600,10.5163935546875,9.805773735046387,-0.12751491367816925,-0.030587080866098404
1672829356428339700,10.526339599609376,9.805771827697754,-0.12370645999908447,-0.04386304318904877
1672829356438285600,10.53628564453125,9.805728912353516,-0.12321193516254425,-0.05373573303222656
1672829356448231700,10.546231689453125,9.805642127990723,-0.12350183725357056,-0.06712271273136139
1672829356458177500,10.556177490234376,9.805546760559082,-0.12348729372024536,-0.07982920110225677
1672829356468123600,10.56612353515625,9.805459976196289,-0.12336955964565277,-0.0902007594704628
1672829356478069500,10.576069580078125,9.80538558959961,-0.12337768822908401,-0.09779364615678787
1672829356488015600,10.586015625,9.805309295654297,-0.12320294976234436,-0.10546860843896866
1672829356497961500,10.59596142578125,9.805246353149414,-0.12188125401735306,-0.11257962137460709
1672829356507907600,10.605907470703125,9.805126190185547,-0.12068067491054535,-0.12378247082233429
1672829356517853400,10.615853515625,9.804938316345215,-0.12081362307071686,-0.13778509199619293
1672829356527799600,10.625799560546875,9.804709434509277,-0.12430775910615921,-0.15032611787319183
1672829356537745400,10.635745361328125,9.804571151733398,-0.13050788640975952,-0.1540805548429489
1672829356547691500,10.64569140625,9.804593086242676,-0.13579846918582916,-0.1480373591184616
1672829356557637400,10.655637451171875,9.804644584655762,-0.13645124435424805,-0.14391972124576569
1672829356567583500,10.66558349609375,9.804689407348633,-0.13700304925441742,-0.14028659462928772
1672829356577529300,10.675529296875,9.804752349853516,-0.13612011075019836,-0.13669109344482422
1672829356587475500,10.685475341796876,9.804819107055664,-0.1344684213399887,-0.13349784910678864
1672829356597421300,10.69542138671875,9.804883003234863,-0.13283829391002655,-0.13043422996997833
1672829356607367400,10.705367431640624,9.804933547973633,-0.13178972899913788,-0.12765727937221527
1672829356617313300,10.715313232421876,9.80496883392334,-0.13179737329483032,-0.12495432049036026
1672829356627259400,10.72525927734375,9.804990768432617,-0.13261814415454865,-0.12234258651733398
1672829356637205200,10.735205322265625,9.805015563964844,-0.1335318386554718,-0.11928778886795044
1672829356647151400,10.7451513671875,9.805039405822754,-0.1339513510465622,-0.11681973934173584
1672829356657097200,10.75509716796875,9.805063247680664,-0.13604651391506195,-0.11232222616672516
1672829356667043300,10.765043212890625,9.805102348327637,-0.1344119757413864,-0.11085205525159836
1672829356676989400,10.774989501953126,9.805153846740723,-0.132847860455513,-0.10809739679098129
1672829356686935300,10.784935302734375,9.805171012878418,-0.13263298571109772,-0.10686469823122025
1672829356696881400,10.79488134765625,9.805185317993164,-0.1328161060810089,-0.10526331514120102
1672829356706827300,10.8048271484375,9.80520248413086,-0.1332404613494873,-0.10307001322507858
1672829356716773400,10.8147734375,9.805214881896973,-0.13359659910202026,-0.10153045505285263
1672829356726719200,10.82471923828125,9.805238723754883,-0.1321394443511963,-0.1010718122124672
1672829356736665300,10.834665283203124,9.805275917053223,-0.1306047886610031,-0.09948667138814926
1672829356746611200,10.844611083984375,9.805319786071777,-0.1293526440858841,-0.09669410437345505
1672829356756557300,10.854557373046875,9.805351257324219,-0.12838001549243927,-0.09484189003705978
1672829356766503200,10.864503173828124,9.805378913879395,-0.12783469259738922,-0.09258728474378586
1672829356776449300,10.87444921875,9.805397987365723,-0.12802180647850037,-0.09041965752840042
1672829356786395100,10.88439501953125,9.805414199829102,-0.12830272316932678,-0.08823952823877335
1672829356796341200,10.89434130859375,9.805434226989746,-0.1282082051038742,-0.08604015409946442
1672829356806287000,10.904287109375,9.805464744567871,-0.12739695608615875,-0.08375013619661331
1672829356816233200,10.914233154296875,9.805502891540527,-0.1260397732257843,-0.08128445595502853
1672829356826179000,10.924178955078125,9.8055419921875,-0.12452542781829834,-0.07890612632036209
1672829356836125200,10.934125244140626,9.80556583404541,-0.12387900799512863,-0.0769091248512268
1672829356846071000,10.944071044921875,9.805582046508789,-0.12375286966562271,-0.07497625797986984
1672829356856017200,10.95401708984375,9.805587768554688,-0.12437143176794052,-0.07325924932956696
1672829356865963000,10.963962890625,9.805594444274902,-0.12487752735614777,-0.0715136006474495
1672829356875909000,10.9739091796875,9.805607795715332,-0.12499752640724182,-0.06951378285884857
1672829356885855200,10.983855224609375,9.80562973022461,-0.12421831488609314,-0.06762629747390747
1672829356895801000,10.993801025390624,9.80566120147705,-0.1228364109992981,-0.06561221182346344
1672829356905747200,11.003747314453125,9.805693626403809,-0.12147488445043564,-0.06329066306352615
1672829356915693000,11.013693115234375,9.80571460723877,-0.12077350914478302,-0.061371441930532455
1672829356925639200,11.02363916015625,9.805723190307617,-0.1208617314696312,-0.059803105890750885
1672829356935585000,11.0335849609375,9.805728912353516,-0.12118581682443619,-0.058234430849552155
1672829356945531100,11.04353125,9.805733680725098,-0.12152634561061859,-0.05671565234661102
1672829356955477000,11.05347705078125,9.805746078491211,-0.12130226939916611,-0.05496325343847275
1672829356965423000,11.063423095703126,9.805763244628906,-0.12068512290716171,-0.05318204686045647
1672829356975369000,11.073368896484375,9.805784225463867,-0.11976148933172226,-0.05135168880224228
1672829356985315000,11.083315185546875,9.805804252624512,-0.11883031576871872,-0.0497891865670681
1672829356995261000,11.093260986328126,9.805815696716309,-0.11849392205476761,-0.04833196476101875
1672829357005207000,11.10320703125,9.805822372436523,-0.11845789104700089,-0.046979546546936035
1672829357015153000,11.11315283203125,9.805824279785156,-0.11874166131019592,-0.045549117028713226
1672829357025099000,11.12309912109375,9.805830001831055,-0.1188613623380661,-0.04413970932364464
1672829357035044900,11.133044921875,9.805840492248535,-0.11850191652774811,-0.04267448931932449
1672829357044991000,11.142990966796875,9.80585765838623,-0.11767134815454483,-0.04099497199058533
1672829357054936800,11.152936767578124,9.805877685546875,-0.11653639376163483,-0.03952684625983238
1672829357064883000,11.162883056640625,9.805891990661621,-0.11591847240924835,-0.03787663206458092
1672829357074828800,11.172828857421875,9.805898666381836,-0.11579178273677826,-0.036459144204854965
1672829357084775000,11.18277490234375,9.805899620056152,-0.11608468741178513,-0.035199787467718124
1672829357094720800,11.192720703125,9.805895805358887,-0.11677225679159164,-0.033884722739458084
1672829357104667000,11.2026669921875,9.805900573730469,-0.1167653426527977,-0.0325901135802269
1672829357114613000,11.212613037109374,9.805912971496582,-0.11612145602703094,-0.031156528741121292
1672829357124558800,11.222558837890626,9.805925369262695,-0.11545511335134506,-0.029748570173978806
1672829357134505000,11.2325048828125,9.805940628051758,-0.11453521251678467,-0.028466733172535896
1672829357144450800,11.242450927734374,9.805950164794922,-0.11395247280597687,-0.02744482457637787
1672829357154397000,11.25239697265625,9.805952072143555,-0.11393534392118454,-0.026417016983032227
1672829357164342800,11.2623427734375,9.805952072143555,-0.11421473324298859,-0.025326652452349663
1672829357174289000,11.272288818359375,9.805949211120605,-0.1146734356880188,-0.024173984304070473
1672829357184234800,11.28223486328125,9.805953025817871,-0.11462246626615524,-0.02296302281320095
1672829357194180900,11.292180908203125,9.805959701538086,-0.11427703499794006,-0.021715210750699043
1672829357204126700,11.302126708984375,9.8059720993042,-0.11343517899513245,-0.02056635171175003
1672829357214072800,11.31207275390625,9.805987358093262,-0.11242732405662537,-0.019312340766191483
1672829357224018700,11.322018798828125,9.805994033813477,-0.11193592846393585,-0.01846524141728878
1672829357233964800,11.33196484375,9.805994987487793,-0.11200957000255585,-0.017529942095279694
1672829357243910700,11.34191064453125,9.805994033813477,-0.1122431829571724,-0.016406184062361717
1672829357253856800,11.351856689453125,9.80599308013916,-0.11251509934663773,-0.015402930788695812
1672829357263802600,11.361802734375,9.805996894836426,-0.11226143687963486,-0.01451766025274992
1672829357273748700,11.371748779296874,9.806004524230957,-0.11169309169054031,-0.013568629510700703
1672829357283694600,11.381694580078126,9.806015014648438,-0.11089399456977844,-0.01263764500617981
1672829357293640700,11.391640625,9.806020736694336,-0.11045148223638535,-0.011697579175233841
1672829357303586600,11.401586669921874,9.806023597717285,-0.11031157523393631,-0.010592371225357056
1672829357313532700,11.41153271484375,9.806021690368652,-0.11057231575250626,-0.009790746495127678
1672829357323478500,11.421478515625,9.806017875671387,-0.11095275729894638,-0.008976484648883343
1672829357333424600,11.431424560546875,9.806018829345703,-0.11096306145191193,-0.008074795827269554
1672829357343370800,11.441370849609376,9.806023597717285,-0.11057576537132263,-0.007107362616807222
1672829357353316600,11.451316650390625,9.806032180786133,-0.10997829586267471,-0.0062021599151194096
1672829357363262700,11.4612626953125,9.806041717529297,-0.1091301292181015,-0.005573636386543512
1672829357373208600,11.47120849609375,9.806046485900879,-0.10867111384868622,-0.004955536685883999
1672829357383154700,11.48115478515625,9.806048393249512,-0.1085384339094162,-0.0042242323979735374
1672829357393100500,11.4911005859375,9.806045532226562,-0.10882974416017532,-0.0034254505299031734
1672829357403046700,11.501046630859374,9.806042671203613,-0.10913778841495514,-0.0027421151753515005
1672829357412992500,11.510992431640625,9.806041717529297,-0.10918010026216507,-0.0018647202523425221
1672829357422938600,11.520938720703125,9.806048393249512,-0.1086621806025505,-0.0010232542408630252
1672829357432884500,11.530884521484374,9.806052207946777,-0.10825502127408981,-0.00029912791796959937
1672829357442830600,11.54083056640625,9.806060791015625,-0.10751520842313766,0.0004937435151077807
1672829357452776400,11.5507763671875,9.806062698364258,-0.10728739947080612,0.0011925803264603019
1672829357462722600,11.56072265625,9.806062698364258,-0.10730332881212234,0.001980831380933523
1672829357472668400,11.57066845703125,9.806059837341309,-0.1075562983751297,0.0025740554556250572
1672829357482614500,11.580614501953125,9.806059837341309,-0.10752010345458984,0.00323928683064878
1672829357492560400,11.590560302734374,9.806060791015625,-0.10742997378110886,0.0038923847023397684
1672829357502506500,11.600506591796876,9.806063652038574,-0.10712388157844543,0.004534573759883642
1672829357512452400,11.610452392578125,9.80606746673584,-0.1067432165145874,0.005347915459424257
1672829357522398500,11.6203984375,9.806072235107422,-0.1062459647655487,0.006147799547761679
1672829357532344300,11.63034423828125,9.806075096130371,-0.1060393750667572,0.006591911893337965
1672829357542290400,11.64029052734375,9.806072235107422,-0.1061549261212349,0.00713078398257494
1672829357552236300,11.650236328125,9.806068420410156,-0.10651541501283646,0.007763405796140432
1672829357562182400,11.660182373046876,9.806065559387207,-0.10669918358325958,0.00862487405538559
1672829357572128500,11.67012841796875,9.806066513061523,-0.10657310485839844,0.009165606461465359
1672829357582074400,11.680074462890625,9.80606746673584,-0.10645951330661774,0.00984536949545145
1672829357592020500,11.6900205078125,9.806070327758789,-0.10612282156944275,0.010181816294789314
1672829357601966300,11.69996630859375,9.806071281433105,-0.10598591715097427,0.010922363959252834
1672829357611912400,11.709912353515625,9.806037902832031,-0.1090322881937027,0.010496627539396286
1672829357621858300,11.7198583984375,9.806020736694336,-0.11087430268526077,0.006819540169090033
1672829357631804400,11.729804443359376,9.806021690368652,-0.11063537001609802,0.008721159771084785
1672829357641750300,11.739750244140625,9.806020736694336,-0.11067904531955719,0.009058574214577675
1672829357651696400,11.7496962890625,9.80603313446045,-0.10954296588897705,0.010887663811445236
1672829357661642200,11.759642333984376,9.80604076385498,-0.10858111828565598,0.012238831259310246
1672829357671588400,11.76958837890625,9.806042671203613,-0.1082509234547615,0.013970154337584972
1672829357681534200,11.7795341796875,9.806034088134766,-0.1088949590921402,0.01558743417263031
1672829357691480300,11.789480224609376,9.806021690368652,-0.10984136164188385,0.016161441802978516
1672829357701426200,11.79942626953125,9.806010246276855,-0.11090562492609024,0.015681017190217972
1672829357711372300,11.809372314453125,9.806007385253906,-0.11129319667816162,0.015593783929944038
1672829357721318400,11.819318359375,9.806007385253906,-0.11119723320007324,0.015619292855262756
1672829357731264500,11.829264404296875,9.80600643157959,-0.11127474159002304,0.015246675349771976
1672829357741210600,11.839210693359375,9.806008338928223,-0.11116906255483627,0.015266627073287964
1672829357751156500,11.849156494140624,9.806001663208008,-0.11168873310089111,0.015535940416157246
1672829357761102000,11.85910205078125,9.805994987487793,-0.1124492958188057,0.014475671574473381
1672829357771048000,11.8690478515625,9.805991172790527,-0.11274196952581406,0.014403225854039192
1672829357780993800,11.878993896484374,9.805989265441895,-0.11307875066995621,0.013991296291351318
1672829357790939400,11.888939453125,9.806007385253906,-0.11144759505987167,0.013348342850804329
1672829357800885200,11.89888525390625,9.806007385253906,-0.1117946207523346,0.010933917947113514
1672829357810831000,11.9088310546875,9.806002616882324,-0.11201050132513046,0.012693817727267742
1672829357820777000,11.91877685546875,9.805999755859375,-0.11209310591220856,0.013845987617969513
1672829357830722800,11.928722900390625,9.805999755859375,-0.11236259341239929,0.011005418375134468
1672829357840669000,11.9386689453125,9.805992126464844,-0.11271964013576508,0.013610268011689186
1672829357850615300,11.948615234375,9.805981636047363,-0.1137818768620491,0.013477909378707409
1672829357860564500,11.958564453125,9.805965423583984,-0.1152404323220253,0.012120328843593597
1672829357870508300,11.96850830078125,9.805954933166504,-0.11619199067354202,0.012430154718458652
1672829357880451800,11.978451904296875,9.805957794189453,-0.1157912090420723,0.012613260187208652
1672829357890399200,11.988399169921875,9.805974960327148,-0.11415203660726547,0.01442065741866827
1672829357900346000,11.99834619140625,9.805985450744629,-0.11322285234928131,0.015319853089749813
1672829357910302000,12.008302001953124,9.805973052978516,-0.11411192268133163,0.015612543560564518
1672829357920238000,12.018238037109375,9.805970191955566,-0.11430024355649948,0.01586643047630787
1672829357930174700,12.0281748046875,9.805974006652832,-0.11400427669286728,0.016720613464713097
1672829357940112100,12.038112060546876,9.805986404418945,-0.1127161756157875,0.017196444794535637
1672829357950050600,12.048050537109376,9.806001663208008,-0.11130301654338837,0.018435437232255936
1672829357959990300,12.057990234375,9.806021690368652,-0.10934127122163773,0.019677558913826942
1672829357969931500,12.067931640625,9.806035995483398,-0.10778060555458069,0.020696936175227165
1672829357979874300,12.077874267578125,9.806034088134766,-0.10798182338476181,0.020936796441674232
1672829357989818600,12.087818603515625,9.806035995483398,-0.10780541598796844,0.020332353189587593
1672829357999765000,12.097764892578125,9.80602741241455,-0.10877199470996857,0.01943790540099144
1672829358009712600,12.107712646484375,9.806049346923828,-0.10651098191738129,0.021128475666046143
1672829358019662000,12.117662109375,9.806066513061523,-0.10440879315137863,0.023219555616378784
1672829358029612500,12.127612548828125,9.806082725524902,-0.10259061306715012,0.02489623613655567
1672829358039564300,12.137564208984376,9.80610179901123,-0.10036695003509521,0.02631898783147335
1672829358049516500,12.1475166015625,9.80611515045166,-0.09873969852924347,0.027703791856765747
1672829358059469600,12.157469482421876,9.806130409240723,-0.09641225636005402,0.029783567413687706
1672829358069422600,12.167422607421875,9.80614948272705,-0.09424035251140594,0.030675198882818222
1672829358079374000,12.1773740234375,9.806147575378418,-0.09385984390974045,0.03239299729466438
1672829358089320000,12.18731982421875,9.806145668029785,-0.0937017947435379,0.03325129672884941
1672829358099266000,12.19726611328125,9.806154251098633,-0.09251897037029266,0.034039147198200226
1672829358109212200,12.207212158203125,9.80616569519043,-0.09110887348651886,0.034703630954027176
1672829358119158000,12.217157958984375,9.806177139282227,-0.08940877765417099,0.03582771494984627
1672829358129104100,12.227104248046874,9.806187629699707,-0.08767610788345337,0.03716925159096718
1672829358139050000,12.237050048828126,9.806191444396973,-0.08623644709587097,0.039477378129959106
1672829358148996000,12.24699609375,9.80618667602539,-0.08627224713563919,0.04058074951171875
1672829358158942000,12.25694189453125,9.806175231933594,-0.08734153211116791,0.04106965288519859
1672829358168888000,12.26688818359375,9.806188583374023,-0.08606370538473129,0.040759582072496414
1672829358178834000,12.276833984375,9.806203842163086,-0.08382824808359146,0.04160681366920471
1672829358188780000,12.286780029296875,9.806229591369629,-0.08025036752223969,0.042435068637132645
1672829358198726000,12.296725830078126,9.80628490447998,-0.0763026624917984,0.036652177572250366
1672829358208672000,12.306672119140625,9.80631160736084,-0.07312799990177155,0.036035288125276566
1672829358218617900,12.316617919921875,9.806328773498535,-0.07051850855350494,0.036517173051834106
1672829358228564000,12.32656396484375,9.8063383102417,-0.0688445121049881,0.037078432738780975
1672829358238509800,12.336509765625,9.806349754333496,-0.0671808049082756,0.03706353157758713
1672829358248456000,12.3464560546875,9.806357383728027,-0.06540372222661972,0.0383889339864254
1672829358258401800,12.35640185546875,9.806376457214355,-0.06210321560502052,0.03889181464910507
1672829358268348000,12.366347900390625,9.806386947631836,-0.05870857834815979,0.04135298356413841
1672829358278293800,12.376293701171875,9.806336402893066,-0.059229735285043716,0.05146219953894615
1672829358288239900,12.386239990234374,9.806290626525879,-0.05956270918250084,0.0591549351811409
1672829358298185700,12.396185791015625,9.806276321411133,-0.05871763080358505,0.06235314905643463
1672829358308131800,12.4061318359375,9.806259155273438,-0.059221070259809494,0.06447762250900269
1672829358318077700,12.41607763671875,9.806221008300781,-0.060148924589157104,0.06932025402784348
1672829358328023800,12.42602392578125,9.80624771118164,-0.055839765816926956,0.06912582367658615
1672829358337969700,12.4359697265625,9.806266784667969,-0.05044560879468918,0.07043398916721344
1672829358347915800,12.445915771484374,9.806285858154297,-0.04368940740823746,0.07234644889831543
1672829358357862000,12.45586181640625,9.806361198425293,-0.03487526997923851,0.06676815450191498
1672829358367807700,12.465807861328125,9.806448936462402,-0.0268546212464571,0.056865543127059937
1672829358377753900,12.47575390625,9.806501388549805,-0.021747825667262077,0.04931330680847168
1672829358387699700,12.48569970703125,9.80648136138916,-0.021933402866125107,0.05332591384649277
1672829358397645800,12.495645751953125,9.806489944458008,-0.020252088084816933,0.05214713141322136
1672829358407591700,12.505591796875,9.806490898132324,-0.017456943169236183,0.05303514376282692
1672829358417537800,12.515537841796874,9.80649185180664,-0.013311436399817467,0.05401482433080673
