time,seconds_elapsed,z,y,x
1672829346054615600,0.152615478515625,0.002279473003000021,0.002513844519853592,0.0010017363820225
1672829346064433700,0.16243359375,0.002279473003000021,0.0035791080445051193,0.0010017363820225
1672829346074265300,0.172265380859375,0.002279473003000021,0.002513844519853592,0.0010017363820225
1672829346084114700,0.18211474609375,0.002279473003000021,0.002513844519853592,-0.00006352714262902737
1672829346093985000,0.191985107421875,0.0012142094783484936,0.002513844519853592,0.0020669999066740274
1672829346103878700,0.201878662109375,0.0033447365276515484,0.004644371569156647,-0.00006352714262902737
1672829346113796400,0.21179638671875,0.0012142094783484936,0.0014485809952020645,0.0020669999066740274
1672829346123738400,0.22173828125,0.0033447365276515484,0.0035791080445051193,0.0020669999066740274
1672829346133704200,0.2317041015625,0.002279473003000021,0.002513844519853592,0.0020669999066740274
1672829346143692000,0.241692138671875,0.002279473003000021,0.002513844519853592,0.0020669999066740274
1672829346153698800,0.25169873046875,0.002279473003000021,0.002513844519853592,0.0010017363820225
1672829346163722000,0.261721923828125,0.0012142094783484936,0.002513844519853592,0.0010017363820225
1672829346173757400,0.27175732421875,0.0012142094783484936,0.0014485809952020645,0.0010017363820225
1672829346183801000,0.281801025390625,0.0012142094783484936,0.0035791080445051193,0.0010017363820225
1672829346193849000,0.29184912109375,0.0012142094783484936,0.002513844519853592,0.0010017363820225
1672829346203893000,0.30189306640625,0.002279473003000021,0.002513844519853592,0.0010017363820225
1672829346213838800,0.3118388671875,0.002279473003000021,0.0035791080445051193,-0.00006352714262902737
1672829346223784700,0.32178466796875,0.002279473003000021,0.004644371569156647,-0.00006352714262902737
1672829346233730600,0.33173046875,0.0033447365276515484,0.0003833174705505371,0.0010017363820225
1672829346243676400,0.341676513671875,0.0033447365276515484,0.0014485809952020645,0.0010017363820225
1672829346253622300,0.351622314453125,0.0012142094783484936,0.0035791080445051193,0.0010017363820225
1672829346263568100,0.361568115234375,0.002279473003000021,0.004644371569156647,-0.00006352714262902737
1672829346273514200,0.37151416015625,0.002279473003000021,0.004644371569156647,-0.00006352714262902737
1672829346283460000,0.381460205078125,0.0012142094783484936,0.0035791080445051193,-0.00006352714262902737
1672829346293406000,0.391406005859375,0.0033447365276515484,0.002513844519853592,-0.00006352714262902737
1672829346303351800,0.401351806640625,0.002279473003000021,0.0035791080445051193,-0.00006352714262902737
1672829346313297700,0.411297607421875,0.0012142094783484936,0.0014485809952020645,-0.00006352714262902737
1672829346323243500,0.421243408203125,0.0012142094783484936,0.002513844519853592,0.0020669999066740274
1672829346333189400,0.431189453125,0.0012142094783484936,0.002513844519853592,-0.0011287906672805548
1672829346343135200,0.44113525390625,0.002279473003000021,0.0035791080445051193,0.0010017363820225
1672829346353081000,0.4510810546875,0.002279473003000021,0.0035791080445051193,0.0010017363820225
1672829346363027200,0.461027099609375,0.00014894595369696617,0.0035791080445051193,0.0010017363820225
1672829346372973000,0.47097314453125,0.002279473003000021,0.0014485809952020645,0.0010017363820225
1672829346382919000,0.4809189453125,0.002279473003000021,0.0035791080445051193,0.0010017363820225
1672829346392864800,0.49086474609375,0.0012142094783484936,0.0014485809952020645,-0.0011287906672805548
1672829346402810600,0.500810546875,0.002279473003000021,0.002513844519853592,0.0010017363820225
1672829346412756500,0.510756591796875,0.0012142094783484936,0.002513844519853592,0.0010017363820225
1672829346422702300,0.520702392578125,0.002279473003000021,0.0035791080445051193,0.0010017363820225
1672829346432648200,0.530648193359375,0.0033447365276515484,0.0035791080445051193,-0.0011287906672805548
1672829346442594000,0.540593994140625,0.00014894595369696617,0.002513844519853592,0.0010017363820225
1672829346452540200,0.5505400390625,0.002279473003000021,0.002513844519853592,0.0010017363820225
1672829346462486000,0.560486083984375,0.0012142094783484936,0.002513844519853592,0.0010017363820225
1672829346472431900,0.570431884765625,0.002279473003000021,0.002513844519853592,0.0010017363820225
1672829346482377700,0.580377685546875,0.002279473003000021,0.004644371569156647,-0.0011287906672805548
1672829346492323600,0.590323486328125,0.00014894595369696617,0.002513844519853592,0.0010017363820225
1672829346502269400,0.60026953125,0.002279473003000021,0.0035791080445051193,-0.00006352714262902737
1672829346512215300,0.61021533203125,0.002279473003000021,0.002513844519853592,0.0010017363820225
1672829346522161200,0.6201611328125,0.002279473003000021,0.0014485809952020645,0.0010017363820225
1672829346532107300,0.630107177734375,0.002279473003000021,0.002513844519853592,0.0010017363820225
1672829346542053000,0.64005322265625,0.002279473003000021,0.0003833174705505371,-0.00006352714262902737
1672829346551999000,0.6499990234375,0.0012142094783484936,0.002513844519853592,-0.00006352714262902737
1672829346561944800,0.65994482421875,0.0012142094783484936,0.002513844519853592,0.0010017363820225
1672829346571890700,0.669890625,0.0012142094783484936,0.002513844519853592,-0.00006352714262902737
1672829346581836500,0.67983642578125,0.002279473003000021,0.0014485809952020645,0.0010017363820225
1672829346591782400,0.689782470703125,0.0012142094783484936,0.0035791080445051193,0.0020669999066740274
1672829346601728300,0.699728271484375,0.00014894595369696617,0.002513844519853592,0.0010017363820225
1672829346611674000,0.709674072265625,0.002279473003000021,0.0035791080445051193,-0.00006352714262902737
1672829346621620200,0.7196201171875,0.002279473003000021,0.004644371569156647,0.0020669999066740274
1672829346631566000,0.729566162109375,0.0012142094783484936,0.0035791080445051193,0.0010017363820225
1672829346641512000,0.739511962890625,0.002279473003000021,0.0035791080445051193,0.0020669999066740274
1672829346651457800,0.749457763671875,0.0012142094783484936,0.002513844519853592,0.0020669999066740274
1672829346661403600,0.759403564453125,0.0012142094783484936,0.0035791080445051193,0.0010017363820225
1672829346671349500,0.769349609375,0.0012142094783484936,0.0014485809952020645,0.0010017363820225
1672829346681295400,0.77929541015625,0.002279473003000021,0.004644371569156647,0.0010017363820225
1672829346691241200,0.7892412109375,0.002279473003000021,0.002513844519853592,0.0020669999066740274
1672829346701187000,0.79918701171875,0.004410000052303076,0.0035791080445051193,-0.0011287906672805548
1672829346711133200,0.80913330078125,0.002279473003000021,0.002513844519853592,0.0010017363820225
1672829346721079000,0.8190791015625,0.0012142094783484936,0.002513844519853592,0.0010017363820225
1672829346731025000,0.82902490234375,0.002279473003000021,0.002513844519853592,-0.00006352714262902737
1672829346740971000,0.838970947265625,0.0012142094783484936,0.0014485809952020645,-0.00006352714262902737
1672829346750917000,0.848917236328125,0.0012142094783484936,0.0035791080445051193,0.0010017363820225
1672829346760863200,0.85886328125,0.0012142094783484936,0.0035791080445051193,0.0020669999066740274
1672829346770809300,0.868809326171875,0.0012142094783484936,0.004644371569156647,-0.00006352714262902737
1672829346780755500,0.87875537109375,0.002279473003000021,0.004644371569156647,-0.0011287906672805548
1672829346790701800,0.888701904296875,0.0012142094783484936,0.0035791080445051193,-0.00006352714262902737
1672829346800648000,0.89864794921875,0.002279473003000021,0.0035791080445051193,-0.00006352714262902737
1672829346810596000,0.90859619140625,0.0012142094783484936,0.002513844519853592,0.0020669999066740274
1672829346820548000,0.918548095703125,0.0012142094783484936,0.002513844519853592,0.0020669999066740274
1672829346830484700,0.928484619140625,0.002279473003000021,0.0014485809952020645,0.0010017363820225
1672829346840422100,0.938422119140625,0.002279473003000021,0.002513844519853592,0.0010017363820225
1672829346850359800,0.94835986328125,0.0012142094783484936,0.0035791080445051193,0.0020669999066740274
1672829346860298800,0.958298828125,0.00014894595369696617,0.0035791080445051193,-0.00006352714262902737
1672829346870238700,0.96823876953125,0.0012142094783484936,0.0014485809952020645,-0.00006352714262902737
1672829346880180200,0.97818017578125,0.00014894595369696617,0.002513844519853592,-0.00006352714262902737
1672829346890123300,0.988123291015625,0.002279473003000021,0.005709635093808174,0.0020669999066740274
1672829346900067800,0.99806787109375,0.0033447365276515484,0.0035791080445051193,-0.0011287906672805548
1672829346910014000,1.008013916015625,0.002279473003000021,0.0014485809952020645,-0.00006352714262902737
1672829346919961300,1.01796142578125,0.0012142094783484936,0.0035791080445051193,-0.00006352714262902737
1672829346929910500,1.02791064453125,0.0012142094783484936,0.002513844519853592,-0.00006352714262902737
1672829346939860500,1.037860595703125,0.00014894595369696617,0.002513844519853592,0.0010017363820225
1672829346949811700,1.047811767578125,0.002279473003000021,0.0035791080445051193,0.0010017363820225
1672829346959763700,1.057763671875,0.002279473003000021,0.002513844519853592,0.0010017363820225
1672829346969716000,1.067716064453125,0.0012142094783484936,0.0014485809952020645,-0.00006352714262902737
1672829346979668500,1.07766845703125,0.0012142094783484936,0.002513844519853592,-0.00006352714262902737
1672829346989619500,1.087619384765625,0.002279473003000021,0.0035791080445051193,0.0010017363820225
1672829346999565300,1.0975654296875,0.0012142094783484936,0.0014485809952020645,-0.0011287906672805548
1672829347009511400,1.107511474609375,0.0012142094783484936,0.0035791080445051193,-0.00006352714262902737
1672829347019457300,1.117457275390625,0.002279473003000021,0.002513844519853592,-0.00006352714262902737
1672829347029403100,1.127403076171875,0.0012142094783484936,0.002513844519853592,-0.00006352714262902737
1672829347039349000,1.137348876953125,0.0012142094783484936,0.002513844519853592,0.0020669999066740274
1672829347049294800,1.147294921875,0.002279473003000021,0.004644371569156647,0.0010017363820225
1672829347059240700,1.15724072265625,0.00014894595369696617,0.0035791080445051193,0.0010017363820225
1672829347069186600,1.1671865234375,0.002279473003000021,0.0035791080445051193,0.0020669999066740274
1672829347079132400,1.17713232421875,0.0012142094783484936,0.0003833174705505371,-0.00006352714262902737
1672829347089078300,1.187078369140625,0.002279473003000021,0.0014485809952020645,0.0010017363820225
1672829347099024400,1.1970244140625,0.0012142094783484936,0.0035791080445051193,0.0010017363820225
1672829347108970200,1.20697021484375,0.002279473003000021,0.0014485809952020645,0.0020669999066740274
1672829347118916000,1.216916015625,0.0012142094783484936,0.0035791080445051193,-0.00006352714262902737
1672829347128862000,1.226862060546875,0.0012142094783484936,0.004644371569156647,0.0010017363820225
1672829347138807800,1.236807861328125,0.002279473003000021,0.0014485809952020645,0.0010017363820225
1672829347148753700,1.246753662109375,0.002279473003000021,0.0035791080445051193,-0.00006352714262902737
1672829347158699500,1.256699462890625,0.0012142094783484936,0.002513844519853592,-0.00006352714262902737
1672829347168645400,1.266645263671875,0.0012142094783484936,0.0014485809952020645,-0.0011287906672805548
1672829347178591200,1.27659130859375,0.00014894595369696617,0.002513844519853592,0.0020669999066740274
1672829347188537300,1.286537353515625,0.00014894595369696617,0.0014485809952020645,-0.00006352714262902737
1672829347198483200,1.296483154296875,0.0012142094783484936,0.002513844519853592,-0.00006352714262902737
1672829347208429000,1.306428955078125,0.002279473003000021,0.002513844519853592,-0.00006352714262902737
1672829347218375000,1.316375,0.0033447365276515484,0.0035791080445051193,0.0020669999066740274
1672829347228320800,1.32632080078125,0.002279473003000021,0.002513844519853592,0.0010017363820225
1672829347238266600,1.3362666015625,0.0012142094783484936,0.002513844519853592,-0.00006352714262902737
1672829347248212500,1.34621240234375,0.0012142094783484936,0.002513844519853592,0.0010017363820225
1672829347258158300,1.356158447265625,0.0033447365276515484,0.0035791080445051193,-0.00006352714262902737
1672829347268104400,1.3661044921875,0.0033447365276515484,0.002513844519853592,0.0010017363820225
1672829347278050300,1.37605029296875,0.0033447365276515484,0.002513844519853592,0.0010017363820225
1672829347287996200,1.38599609375,0.00014894595369696617,0.0014485809952020645,0.0010017363820225
1672829347297942000,1.39594189453125,0.002279473003000021,0.0035791080445051193,-0.00006352714262902737
1672829347307887900,1.405887939453125,0.0012142094783484936,0.002513844519853592,0.0010017363820225
1672829347317833700,1.415833740234375,0.0012142094783484936,0.0035791080445051193,0.0020669999066740274
1672829347327779600,1.425779541015625,0.002279473003000021,0.0035791080445051193,-0.00006352714262902737
1672829347337725400,1.435725341796875,0.0012142094783484936,0.0035791080445051193,-0.0011287906672805548
1672829347347671300,1.44567138671875,0.00014894595369696617,0.0035791080445051193,0.0010017363820225
1672829347357617400,1.455617431640625,0.00014894595369696617,0.0035791080445051193,-0.00006352714262902737
1672829347367563300,1.465563232421875,0.0012142094783484936,0.0035791080445051193,0.0010017363820225
1672829347377509000,1.475509033203125,0.0012142094783484936,0.0035791080445051193,0.0010017363820225
1672829347387455200,1.485455322265625,0.002279473003000021,0.0035791080445051193,-0.00006352714262902737
1672829347397401000,1.495401123046875,0.0012142094783484936,0.002513844519853592,0.0010017363820225
1672829347407347000,1.505346923828125,0.00014894595369696617,0.0035791080445051193,0.0010017363820225
1672829347417292800,1.515292724609375,0.002279473003000021,0.0035791080445051193,0.0010017363820225
1672829347427239000,1.525239013671875,0.00014894595369696617,0.002513844519853592,0.0010017363820225
1672829347437184800,1.535184814453125,0.002279473003000021,0.002513844519853592,-0.00006352714262902737
1672829347447130600,1.545130615234375,0.00014894595369696617,0.004644371569156647,-0.00006352714262902737
1672829347457076700,1.55507666015625,0.002279473003000021,0.0035791080445051193,0.0020669999066740274
1672829347467022600,1.565022705078125,0.0012142094783484936,0.002513844519853592,0.0010017363820225
1672829347476968400,1.574968505859375,0.002279473003000021,0.0035791080445051193,0.0010017363820225
1672829347486914600,1.58491455078125,0.002279473003000021,0.0014485809952020645,-0.00006352714262902737
1672829347496860400,1.5948603515625,0.002279473003000021,0.002513844519853592,-0.00006352714262902737
1672829347506806300,1.60480615234375,0.002279473003000021,0.002513844519853592,0.0010017363820225
1672829347516752400,1.61475244140625,0.002279473003000021,0.0014485809952020645,0.0010017363820225
1672829347526698200,1.6246982421875,0.0012142094783484936,0.002513844519853592,0.0010017363820225
1672829347536644000,1.63464404296875,0.0012142094783484936,0.0014485809952020645,0.0010017363820225
1672829347546590200,1.644590087890625,0.002279473003000021,0.0014485809952020645,0.0010017363820225
1672829347556536000,1.6545361328125,0.00014894595369696617,0.0035791080445051193,-0.00006352714262902737
1672829347566482000,1.66448193359375,0.002279473003000021,0.002513844519853592,0.0010017363820225
1672829347576428000,1.674427978515625,0.0012142094783484936,0.002513844519853592,-0.00006352714262902737
1672829347586374000,1.684373779296875,0.0012142094783484936,0.002513844519853592,0.0010017363820225
1672829347596319700,1.69431982421875,0.002279473003000021,0.0014485809952020645,-0.00006352714262902737
1672829347606265900,1.704265869140625,0.00014894595369696617,0.0035791080445051193,0.0020669999066740274
1672829347616211700,1.714211669921875,0.0012142094783484936,0.0035791080445051193,0.0010017363820225
1672829347626157600,1.724157470703125,0.002279473003000021,0.0035791080445051193,-0.00006352714262902737
1672829347636103400,1.734103515625,0.0033447365276515484,0.002513844519853592,0.0020669999066740274
1672829347646049500,1.744049560546875,0.0012142094783484936,0.002513844519853592,0.0020669999066740274
1672829347655995400,1.753995361328125,0.00014894595369696617,0.0014485809952020645,-0.00006352714262902737
1672829347665941200,1.763941162109375,0.002279473003000021,0.002513844519853592,0.0010017363820225
1672829347675887400,1.773887451171875,0.0012142094783484936,0.004644371569156647,0.0010017363820225
1672829347685833200,1.783833251953125,0.002279473003000021,0.002513844519853592,-0.00006352714262902737
1672829347695779000,1.793779052734375,0.00014894595369696617,0.0035791080445051193,-0.00006352714262902737
1672829347705725200,1.80372509765625,0.002279473003000021,0.0035791080445051193,0.0010017363820225
1672829347715671000,1.813671142578125,0.002279473003000021,0.0035791080445051193,0.0020669999066740274
1672829347725617000,1.823616943359375,0.002279473003000021,0.002513844519853592,0.0010017363820225
1672829347735563000,1.83356298828125,0.00014894595369696617,0.005709635093808174,0.0010017363820225
1672829347745508900,1.8435087890625,0.0012142094783484936,0.0035791080445051193,0.0010017363820225
1672829347755454700,1.853454833984375,0.0012142094783484936,0.004644371569156647,0.0020669999066740274
1672829347765400800,1.86340087890625,0.0012142094783484936,0.002513844519853592,-0.00006352714262902737
1672829347775346700,1.8733466796875,0.002279473003000021,0.0014485809952020645,-0.00006352714262902737
1672829347785292500,1.88329248046875,0.0012142094783484936,0.002513844519853592,0.0010017363820225
1672829347795238700,1.89323876953125,0.0012142094783484936,0.0035791080445051193,-0.00006352714262902737
1672829347805184500,1.9031845703125,0.00014894595369696617,0.0014485809952020645,0.0010017363820225
1672829347815130400,1.91313037109375,0.002279473003000021,0.0014485809952020645,0.0020669999066740274
1672829347825076500,1.923076416015625,0.0033447365276515484,0.0035791080445051193,-0.00006352714262902737
1672829347835022300,1.933022216796875,0.002279473003000021,0.002513844519853592,-0.00006352714262902737
1672829347844968200,1.94296826171875,0.0012142094783484936,0.002513844519853592,0.0010017363820225
1672829347854914000,1.9529140625,0.002279473003000021,0.002513844519853592,0.0010017363820225
1672829347864860200,1.962860107421875,0.002279473003000021,0.0035791080445051193,-0.00006352714262902737
1672829347874806000,1.972805908203125,0.0033447365276515484,0.002513844519853592,0.0020669999066740274
1672829347884752000,1.982751953125,0.0012142094783484936,0.002513844519853592,-0.00006352714262902737
1672829347894698000,1.992697998046875,0.0012142094783484936,0.002513844519853592,-0.00006352714262902737
1672829347904643800,2.002643798828125,0.002279473003000021,0.0014485809952020645,0.0020669999066740274
1672829347914589700,2.012589599609375,0.0012142094783484936,0.004644371569156647,0.0010017363820225
1672829347924535800,2.022535888671875,0.0012142094783484936,0.0014485809952020645,-0.00006352714262902737
1672829347934481700,2.032481689453125,0.0033447365276515484,0.002513844519853592,0.0020669999066740274
1672829347944427500,2.042427490234375,0.002279473003000021,0.0035791080445051193,-0.00006352714262902737
1672829347954373600,2.05237353515625,0.002279473003000021,0.002513844519853592,-0.00006352714262902737
1672829347964319500,2.062319580078125,0.00014894595369696617,0.002513844519853592,0.0010017363820225
1672829347974265300,2.072265380859375,0.0012142094783484936,0.0035791080445051193,0.0010017363820225
1672829347984211500,2.08221142578125,0.0033447365276515484,0.002513844519853592,0.0010017363820225
1672829347994157300,2.0921572265625,0.002279473003000021,0.002513844519853592,0.0010017363820225
1672829348004103200,2.102103271484375,0.0012142094783484936,0.0035791080445051193,0.0010017363820225
1672829348014049300,2.11204931640625,0.002279473003000021,0.0035791080445051193,-0.00006352714262902737
1672829348023995100,2.1219951171875,0.0012142094783484936,0.002513844519853592,-0.00006352714262902737
1672829348033941000,2.13194091796875,0.00014894595369696617,0.002513844519853592,0.0010017363820225
1672829348043887000,2.14188720703125,0.0012142094783484936,0.0035791080445051193,-0.00006352714262902737
1672829348053833000,2.1518330078125,0.0033447365276515484,0.0035791080445051193,0.0010017363820225
1672829348063778800,2.16177880859375,0.00014894595369696617,0.002513844519853592,-0.00006352714262902737
1672829348073724700,2.171724609375,0.002279473003000021,0.002513844519853592,0.0010017363820225
1672829348083670800,2.1816708984375,0.002279473003000021,0.0014485809952020645,0.0010017363820225
1672829348093616600,2.19161669921875,0.002279473003000021,0.0035791080445051193,-0.00006352714262902737
1672829348103562500,2.2015625,0.002279473003000021,0.0035791080445051193,-0.0011287906672805548
1672829348113508600,2.211508544921875,0.0012142094783484936,0.0014485809952020645,-0.00006352714262902737
1672829348123454500,2.221454345703125,0.0012142094783484936,0.004644371569156647,0.0010017363820225
1672829348133400300,2.231400390625,0.00014894595369696617,0.002513844519853592,-0.0011287906672805548
1672829348143346400,2.241346435546875,0.0012142094783484936,0.002513844519853592,-0.00006352714262902737
1672829348153292300,2.251292236328125,0.002279473003000021,0.004644371569156647,0.0010017363820225
1672829348163238100,2.261238037109375,0.0012142094783484936,0.0014485809952020645,0.0010017363820225
1672829348173184300,2.271184326171875,0.00014894595369696617,0.002513844519853592,0.0010017363820225
1672829348183130000,2.281130126953125,0.00014894595369696617,0.005709635093808174,0.0020669999066740274
1672829348193076000,2.291075927734375,0.0012142094783484936,0.0035791080445051193,-0.00006352714262902737
1672829348203022000,2.30102197265625,0.0012142094783484936,0.0035791080445051193,0.0010017363820225
1672829348212968000,2.310968017578125,0.002279473003000021,0.002513844519853592,-0.00006352714262902737
1672829348222913800,2.320913818359375,0.002279473003000021,0.0035791080445051193,0.0020669999066740274
1672829348232860000,2.33085986328125,0.002279473003000021,0.0014485809952020645,0.0020669999066740274
1672829348242805800,2.3408056640625,0.00014894595369696617,0.002513844519853592,0.0010017363820225
1672829348252751600,2.350751708984375,0.002279473003000021,0.002513844519853592,-0.0011287906672805548
1672829348262697700,2.36069775390625,0.00014894595369696617,0.13567177951335907,0.006328053772449493
1672829348272643600,2.3706435546875,0.0033447365276515484,-0.044357746839523315,-0.005389844998717308
1672829348282589400,2.38058935546875,0.002279473003000021,-0.028378797695040703,0.0010017363820225
1672829348292535300,2.390535400390625,0.0012142094783484936,0.0067748986184597015,-0.00006352714262902737
1672829348302481400,2.4004814453125,0.0012142094783484936,0.017427533864974976,-0.004324581474065781
1672829348312427300,2.41042724609375,0.002279473003000021,-0.006008263677358627,0.0010017363820225
1672829348322373000,2.420373046875,0.0012142094783484936,-0.008138790726661682,0.003132263431325555
1672829348332319200,2.4303193359375,0.00014894595369696617,0.002513844519853592,0.0010017363820225
1672829348342265000,2.44026513671875,0.00014894595369696617,0.002513844519853592,0.0010017363820225
1672829348352211000,2.4502109375,0.0012142094783484936,0.004644371569156647,0.0010017363820225
1672829348362157000,2.460156982421875,0.002279473003000021,0.0035791080445051193,0.0010017363820225
1672829348372103000,2.47010302734375,0.00014894595369696617,0.0035791080445051193,0.0020669999066740274
1672829348382048800,2.480048828125,0.0012142094783484936,0.002513844519853592,-0.00006352714262902737
1672829348391995000,2.489994873046875,0.002279473003000021,0.0035791080445051193,0.0010017363820225
1672829348401940700,2.499940673828125,0.0012142094783484936,0.0014485809952020645,0.0010017363820225
1672829348411886600,2.509886474609375,0.0033447365276515484,0.002513844519853592,-0.00006352714262902737
1672829348421832700,2.519832763671875,0.0012142094783484936,0.002513844519853592,0.0010017363820225
1672829348431778600,2.529778564453125,0.0012142094783484936,0.0035791080445051193,0.0010017363820225
1672829348441724400,2.539724365234375,0.002279473003000021,0.0035791080445051193,0.0010017363820225
1672829348451670500,2.54967041015625,0.00014894595369696617,0.002513844519853592,0.0010017363820225
1672829348461616400,2.559616455078125,0.0012142094783484936,0.0014485809952020645,-0.00006352714262902737
1672829348471562200,2.569562255859375,0.0012142094783484936,0.002513844519853592,-0.00006352714262902737
1672829348481508400,2.57950830078125,0.0012142094783484936,0.002513844519853592,-0.00006352714262902737
1672829348491454200,2.5894541015625,0.0012142094783484936,0.002513844519853592,-0.0011287906672805548
1672829348501400300,2.599400390625,0.002279473003000021,0.0035791080445051193,-0.00006352714262902737
1672829348511346400,2.609346435546875,0.0012142094783484936,0.002513844519853592,0.0010017363820225
1672829348521292800,2.619292724609375,0.0033447365276515484,0.002513844519853592,0.0010017363820225
1672829348531239200,2.6292392578125,0.002279473003000021,0.0014485809952020645,0.0010017363820225
1672829348541185500,2.639185546875,0.002279473003000021,0.0014485809952020645,-0.00006352714262902737
1672829348551132200,2.649132080078125,0.0033447365276515484,0.0035791080445051193,0.0010017363820225
1672829348561078000,2.659078125,0.0012142094783484936,0.0035791080445051193,0.0010017363820225
1672829348571022600,2.669022705078125,0.0033447365276515484,0.002513844519853592,0.0010017363820225
1672829348580967200,2.67896728515625,0.002279473003000021,0.002513844519853592,-0.00006352714262902737
1672829348590912000,2.688912109375,0.0012142094783484936,0.0014485809952020645,-0.00006352714262902737
1672829348600856800,2.69885693359375,0.0012142094783484936,0.0035791080445051193,0.0010017363820225
1672829348610801700,2.7088017578125,0.002279473003000021,0.004644371569156647,0.0010017363820225
1672829348620747000,2.7187470703125,0.002279473003000021,0.0035791080445051193,-0.00006352714262902737
1672829348630692400,2.7286923828125,0.002279473003000021,0.0003833174705505371,-0.00006352714262902737
1672829348640639200,2.73863916015625,0.0033447365276515484,0.002513844519853592,0.0020669999066740274
1672829348650586000,2.748586181640625,0.002279473003000021,0.0035791080445051193,-0.00006352714262902737
1672829348660533000,2.758532958984375,0.0012142094783484936,0.002513844519853592,-0.00006352714262902737
1672829348670480100,2.768480224609375,0.0033447365276515484,0.002513844519853592,0.0020669999066740274
1672829348680437000,2.77843701171875,0.0012142094783484936,0.004644371569156647,0.0010017363820225
1672829348690403600,2.788403564453125,-0.0009163175709545612,0.0035791080445051193,-0.00006352714262902737
1672829348700320000,2.798320068359375,0.002279473003000021,0.0035791080445051193,0.0020669999066740274
1672829348710237400,2.808237548828125,0.0012142094783484936,0.0035791080445051193,0.0010017363820225
1672829348720157200,2.8181572265625,0.002279473003000021,0.0014485809952020645,-0.00006352714262902737
1672829348730080300,2.828080322265625,0.002279473003000021,0.0035791080445051193,0.0010017363820225
1672829348740007200,2.838007080078125,0.0012142094783484936,0.004644371569156647,-0.00006352714262902737
1672829348749938700,2.847938720703125,0.0012142094783484936,0.0035791080445051193,0.0010017363820225
1672829348759875300,2.857875244140625,0.002279473003000021,0.0035791080445051193,0.0020669999066740274
1672829348769817000,2.867817138671875,0.00014894595369696617,0.0014485809952020645,0.0010017363820225
1672829348779763700,2.877763671875,0.0012142094783484936,0.0035791080445051193,-0.00006352714262902737
1672829348789715500,2.887715576171875,0.002279473003000021,0.0014485809952020645,0.0010017363820225
1672829348799671800,2.897671875,0.002279473003000021,0.002513844519853592,0.0020669999066740274
1672829348809631700,2.9076318359375,0.0012142094783484936,0.004644371569156647,-0.00006352714262902737
1672829348819595000,2.917594970703125,0.002279473003000021,0.0014485809952020645,-0.00006352714262902737
1672829348829560600,2.927560546875,0.002279473003000021,0.0035791080445051193,-0.00006352714262902737
1672829348839527700,2.937527587890625,0.002279473003000021,0.004644371569156647,-0.00006352714262902737
1672829348849495300,2.947495361328125,0.0012142094783484936,0.0035791080445051193,-0.0011287906672805548
1672829348859455200,2.957455322265625,0.002279473003000021,0.002513844519853592,0.0020669999066740274
1672829348869401000,2.967401123046875,0.002279473003000021,0.0035791080445051193,0.0010017363820225
1672829348879347000,2.977346923828125,0.002279473003000021,0.002513844519853592,-0.0011287906672805548
1672829348889292800,2.987292724609375,0.0012142094783484936,0.002513844519853592,0.0010017363820225
1672829348899239000,2.997239013671875,0.0012142094783484936,0.002513844519853592,0.0010017363820225
1672829348909184800,3.007184814453125,0.00014894595369696617,0.004644371569156647,0.0020669999066740274
1672829348919130600,3.017130615234375,0.0012142094783484936,0.002513844519853592,0.0010017363820225
1672829348929076700,3.02707666015625,0.0012142094783484936,0.002513844519853592,-0.00006352714262902737
1672829348939022600,3.037022705078125,0.00014894595369696617,0.0014485809952020645,0.0010017363820225
1672829348948968400,3.046968505859375,0.002279473003000021,0.002513844519853592,-0.00006352714262902737
1672829348958914600,3.05691455078125,0.002279473003000021,0.0035791080445051193,0.0010017363820225
1672829348968860400,3.0668603515625,0.0012142094783484936,0.002513844519853592,0.0020669999066740274
1672829348978806300,3.07680615234375,0.004410000052303076,0.0035791080445051193,-0.00006352714262902737
1672829348988752400,3.08675244140625,0.0033447365276515484,0.0035791080445051193,-0.00006352714262902737
1672829348998698200,3.0966982421875,0.0012142094783484936,0.002513844519853592,0.0010017363820225
1672829349008644000,3.10664404296875,0.0012142094783484936,0.002513844519853592,0.0020669999066740274
1672829349018590200,3.116590087890625,0.0012142094783484936,0.002513844519853592,0.0010017363820225
1672829349028536000,3.1265361328125,0.0012142094783484936,0.0035791080445051193,-0.0011287906672805548
1672829349038482000,3.13648193359375,0.0012142094783484936,0.002513844519853592,0.0020669999066740274
1672829349048428000,3.146427978515625,0.0033447365276515484,0.0035791080445051193,-0.00006352714262902737
1672829349058374000,3.156373779296875,0.002279473003000021,0.002513844519853592,0.0010017363820225
1672829349068319700,3.16631982421875,0.00014894595369696617,0.002513844519853592,0.0010017363820225
1672829349078265900,3.176265869140625,0.0012142094783484936,0.002513844519853592,-0.00006352714262902737
1672829349088211700,3.186211669921875,0.002279473003000021,0.0035791080445051193,-0.00006352714262902737
1672829349098157600,3.196157470703125,0.0012142094783484936,0.0014485809952020645,0.0010017363820225
1672829349108103400,3.206103515625,0.002279473003000021,0.002513844519853592,-0.00006352714262902737
1672829349118049500,3.216049560546875,0.0012142094783484936,0.002513844519853592,-0.00006352714262902737
1672829349127995400,3.225995361328125,0.002279473003000021,0.0035791080445051193,0.0010017363820225
1672829349137941200,3.235941162109375,0.0012142094783484936,0.0014485809952020645,-0.00006352714262902737
1672829349147887400,3.245887451171875,0.0012142094783484936,0.002513844519853592,0.0010017363820225
1672829349157833200,3.255833251953125,0.002279473003000021,0.0035791080445051193,0.0010017363820225
1672829349167779000,3.265779052734375,0.0033447365276515484,0.002513844519853592,-0.00006352714262902737
1672829349177725200,3.27572509765625,0.00014894595369696617,0.0035791080445051193,0.0010017363820225
1672829349187671000,3.285671142578125,0.002279473003000021,0.0014485809952020645,0.0010017363820225
1672829349197617000,3.295616943359375,0.00014894595369696617,0.002513844519853592,0.0010017363820225
1672829349207563000,3.30556298828125,0.002279473003000021,0.0035791080445051193,0.0020669999066740274
1672829349217508900,3.3155087890625,0.0012142094783484936,0.0014485809952020645,0.0020669999066740274
1672829349227454700,3.325454833984375,0.002279473003000021,0.0035791080445051193,0.0020669999066740274
1672829349237400800,3.33540087890625,0.002279473003000021,0.0035791080445051193,0.0010017363820225
1672829349247346700,3.3453466796875,0.002279473003000021,0.002513844519853592,-0.00006352714262902737
1672829349257292500,3.35529248046875,0.0012142094783484936,0.0035791080445051193,0.0010017363820225
1672829349267238700,3.36523876953125,0.0012142094783484936,0.0035791080445051193,0.0010017363820225
1672829349277184500,3.3751845703125,0.002279473003000021,0.002513844519853592,0.0010017363820225
1672829349287130400,3.38513037109375,0.0012142094783484936,0.0035791080445051193,-0.00006352714262902737
1672829349297076500,3.395076416015625,0.002279473003000021,0.0035791080445051193,-0.00006352714262902737
1672829349307022300,3.405022216796875,0.002279473003000021,0.002513844519853592,-0.00006352714262902737
1672829349316968200,3.41496826171875,0.0012142094783484936,0.0035791080445051193,0.0010017363820225
1672829349326914000,3.4249140625,0.0012142094783484936,0.0035791080445051193,-0.0011287906672805548
1672829349336860200,3.434860107421875,0.002279473003000021,0.002513844519853592,-0.0011287906672805548
1672829349346806000,3.444805908203125,0.0012142094783484936,0.002513844519853592,-0.00006352714262902737
1672829349356752000,3.454751953125,0.00014894595369696617,0.0035791080445051193,0.0010017363820225
1672829349366698000,3.464697998046875,0.0012142094783484936,0.0035791080445051193,0.0010017363820225
1672829349376643800,3.474643798828125,0.0012142094783484936,0.002513844519853592,0.0010017363820225
1672829349386589700,3.484589599609375,0.0012142094783484936,0.0014485809952020645,-0.0011287906672805548
1672829349396535800,3.494535888671875,0.0012142094783484936,0.0035791080445051193,0.0010017363820225
1672829349406481700,3.504481689453125,0.0033447365276515484,0.0014485809952020645,0.0020669999066740274
1672829349416427500,3.514427490234375,0.0012142094783484936,0.002513844519853592,-0.0011287906672805548
1672829349426373600,3.52437353515625,0.0012142094783484936,0.002513844519853592,-0.00006352714262902737
1672829349436319500,3.534319580078125,0.004410000052303076,0.002513844519853592,-0.00006352714262902737
1672829349446265300,3.544265380859375,0.0012142094783484936,0.0003833174705505371,-0.0011287906672805548
1672829349456211500,3.55421142578125,0.0033447365276515484,0.002513844519853592,0.0010017363820225
1672829349466157300,3.5641572265625,0.002279473003000021,0.0035791080445051193,0.0010017363820225
1672829349476103200,3.574103271484375,0.0012142094783484936,0.0035791080445051193,0.0010017363820225
1672829349486049300,3.58404931640625,0.002279473003000021,0.0014485809952020645,-0.00006352714262902737
1672829349495995100,3.5939951171875,0.002279473003000021,0.002513844519853592,0.0020669999066740274
1672829349505941000,3.60394091796875,0.002279473003000021,0.002513844519853592,0.0010017363820225
1672829349515887000,3.61388720703125,0.002279473003000021,0.0014485809952020645,-0.00006352714262902737
1672829349525833000,3.6238330078125,0.002279473003000021,0.004644371569156647,0.0010017363820225
1672829349535778800,3.63377880859375,0.0012142094783484936,0.002513844519853592,-0.00006352714262902737
1672829349545724700,3.643724609375,0.0012142094783484936,0.002513844519853592,-0.00006352714262902737
1672829349555670800,3.6536708984375,0.002279473003000021,0.002513844519853592,0.0020669999066740274
1672829349565616600,3.66361669921875,0.0012142094783484936,0.0035791080445051193,0.0010017363820225
1672829349575562500,3.6735625,0.0012142094783484936,0.002513844519853592,0.0020669999066740274
1672829349585508600,3.683508544921875,0.002279473003000021,0.0035791080445051193,0.0010017363820225
1672829349595454500,3.693454345703125,0.0012142094783484936,0.0014485809952020645,-0.00006352714262902737
1672829349605400300,3.703400390625,0.002279473003000021,0.0035791080445051193,-0.00006352714262902737
1672829349615346400,3.713346435546875,0.00014894595369696617,0.002513844519853592,0.0010017363820225
1672829349625292300,3.723292236328125,0.002279473003000021,0.0035791080445051193,0.0010017363820225
1672829349635238100,3.733238037109375,0.0012142094783484936,0.002513844519853592,0.0020669999066740274
1672829349645184300,3.743184326171875,0.0012142094783484936,0.004644371569156647,0.0010017363820225
1672829349655130000,3.753130126953125,0.0012142094783484936,0.0035791080445051193,0.0010017363820225
1672829349665076000,3.763075927734375,0.002279473003000021,0.0035791080445051193,0.0020669999066740274
1672829349675022000,3.77302197265625,0.002279473003000021,0.002513844519853592,-0.00006352714262902737
1672829349684968000,3.782968017578125,0.002279473003000021,0.002513844519853592,0.0010017363820225
1672829349694913800,3.792913818359375,0.0012142094783484936,0.0035791080445051193,0.0020669999066740274
1672829349704860000,3.80285986328125,0.0012142094783484936,0.002513844519853592,0.0010017363820225
1672829349714805800,3.8128056640625,0.002279473003000021,0.004644371569156647,0.0010017363820225
1672829349724751600,3.822751708984375,0.002279473003000021,0.0014485809952020645,0.0020669999066740274
1672829349734697700,3.83269775390625,0.0012142094783484936,0.0035791080445051193,0.0020669999066740274
1672829349744643600,3.8426435546875,0.0012142094783484936,0.0035791080445051193,0.0010017363820225
1672829349754589400,3.85258935546875,0.0012142094783484936,0.0014485809952020645,-0.0011287906672805548
1672829349764535300,3.862535400390625,0.002279473003000021,0.0035791080445051193,-0.00006352714262902737
1672829349774481400,3.8724814453125,0.0012142094783484936,0.0035791080445051193,0.0020669999066740274
1672829349784427300,3.88242724609375,0.0012142094783484936,0.002513844519853592,0.0010017363820225
1672829349794373000,3.892373046875,0.0033447365276515484,0.0014485809952020645,-0.00006352714262902737
1672829349804319200,3.9023193359375,0.0012142094783484936,0.002513844519853592,-0.00006352714262902737
1672829349814265000,3.91226513671875,0.002279473003000021,0.004644371569156647,0.0010017363820225
1672829349824211000,3.9222109375,0.002279473003000021,-0.06459775567054749,-0.0458698570728302
1672829349834157000,3.932156982421875,0.004410000052303076,0.05684228241443634,-0.00858563557267189
1672829349844103000,3.94210302734375,0.00014894595369696617,-0.01346510834991932,0.004197526723146439
1672829349854049000,3.952049072265625,0.002279473003000021,0.008905425667762756,-0.00006352714262902737
1672829349863995000,3.961994873046875,0.0012142094783484936,0.0003833174705505371,0.0010017363820225
1672829349873941000,3.97194091796875,0.0012142094783484936,0.0003833174705505371,0.0020669999066740274
1672829349883886800,3.981886962890625,0.002279473003000021,0.0035791080445051193,-0.00006352714262902737
1672829349893833000,3.9918330078125,0.0012142094783484936,0.0003833174705505371,0.003132263431325555
1672829349903778800,4.00177880859375,0.002279473003000021,-0.0006819460541009903,0.0010017363820225
1672829349913725000,4.011724853515625,0.0012142094783484936,0.008905425667762756,-0.002194054191932082
1672829349923670800,4.0216708984375,0.002279473003000021,0.004644371569156647,-0.00006352714262902737
1672829349933617000,4.031616943359375,0.002279473003000021,0.005709635093808174,-0.0011287906672805548
1672829349943562800,4.041562744140625,0.0033447365276515484,0.013166479766368866,-0.00006352714262902737
1672829349953508900,4.0515087890625,0.002279473003000021,0.018492797389626503,-0.0011287906672805548
1672829349963454700,4.061454833984375,0.002279473003000021,0.0014485809952020645,0.0020669999066740274
1672829349973400800,4.07140087890625,0.0012142094783484936,0.008905425667762756,0.0020669999066740274
1672829349983347000,4.081346923828125,0.0033447365276515484,0.017427533864974976,-0.002194054191932082
1672829349993292800,4.091292724609375,0.0012142094783484936,-0.0006819460541009903,0.0010017363820225
1672829350003239000,4.101239013671875,0.002279473003000021,-0.0049430001527071,0.0010017363820225
1672829350013184800,4.111184814453125,0.0012142094783484936,-0.007073527202010155,-0.00006352714262902737
1672829350023131000,4.121130859375,0.002279473003000021,-0.018791425973176956,0.005262790247797966
1672829350033076700,4.13107666015625,0.0012142094783484936,0.0003833174705505371,-0.0011287906672805548
1672829350043022800,4.14102294921875,0.002279473003000021,0.002513844519853592,-0.00006352714262902737
1672829350052968700,4.15096875,0.0012142094783484936,-0.010269317775964737,-0.00006352714262902737
1672829350062914800,4.160914794921875,0.002279473003000021,-0.0017472095787525177,0.0010017363820225
1672829350072860700,4.170860595703125,0.0012142094783484936,-0.0006819460541009903,0.0010017363820225
1672829350082806800,4.180806884765625,0.004410000052303076,-0.061401963233947754,-0.02562985196709633
1672829350092752600,4.190752685546875,-0.003046844620257616,-0.056075647473335266,0.05426491051912308
1672829350102698800,4.20069873046875,0.002279473003000021,-0.026248270645737648,-0.03415196016430855
1672829350112644600,4.21064453125,-0.0009163175709545612,0.05577702075242996,0.022307006642222404
1672829350122590700,4.2205908203125,0.0012142094783484936,0.011035952717065811,-0.004324581474065781
1672829350132536600,4.23053662109375,0.00014894595369696617,0.033406488597393036,0.0010017363820225
1672829350142482700,4.240482666015625,0.00014894595369696617,0.05684228241443634,0.004197526723146439
1672829350152428500,4.250428466796875,0.00014894595369696617,0.04512438923120499,0.0010017363820225
1672829350162374700,4.260374755859375,0.0012142094783484936,0.0280801709741354,0.0010017363820225
1672829350172320500,4.270320556640625,0.0012142094783484936,0.0280801709741354,-0.0011287906672805548
1672829350182266600,4.2802666015625,0.002279473003000021,0.022753851488232613,-0.00006352714262902737
1672829350192212500,4.29021240234375,0.00014894595369696617,0.017427533864974976,-0.0011287906672805548
1672829350202158600,4.30015869140625,-0.0019815810956060886,0.004644371569156647,-0.00006352714262902737
1672829350212104700,4.310104736328125,0.002279473003000021,-0.014530371874570847,-0.0011287906672805548
1672829350222050600,4.320050537109375,0.002279473003000021,-0.0017472095787525177,-0.0011287906672805548
1672829350231996400,4.329996337890625,0.0033447365276515484,0.0003833174705505371,0.0010017363820225
1672829350241942300,4.3399423828125,0.002279473003000021,0.014231743291020393,0.0020669999066740274
1672829350251888400,4.349888427734375,0.0012142094783484936,0.009970689192414284,0.0010017363820225
1672829350261834200,4.359834228515625,0.002279473003000021,0.0067748986184597015,0.0020669999066740274
1672829350271780000,4.369780029296875,0.0012142094783484936,0.0014485809952020645,-0.00006352714262902737
1672829350281726200,4.379726318359375,0.002279473003000021,0.0003833174705505371,-0.002194054191932082
1672829350291672000,4.389672119140625,0.00014894595369696617,-0.0006819460541009903,-0.0011287906672805548
1672829350301618000,4.399617919921875,0.0012142094783484936,0.007840162143111229,-0.0011287906672805548
1672829350311564000,4.40956396484375,0.0012142094783484936,0.0003833174705505371,-0.002194054191932082
1672829350321510000,4.419510009765625,0.002279473003000021,0.004644371569156647,0.0010017363820225
1672829350331456000,4.4294560546875,0.0012142094783484936,0.0035791080445051193,-0.0011287906672805548
1672829350341401900,4.43940185546875,0.0033447365276515484,-0.0017472095787525177,-0.00006352714262902737
1672829350351348000,4.449347900390625,0.004410000052303076,-0.008138790726661682,0.0010017363820225
1672829350361294000,4.459294189453125,0.002279473003000021,-0.008138790726661682,-0.0011287906672805548
1672829350371240200,4.469240234375,0.0012142094783484936,-0.0049430001527071,-0.0011287906672805548
1672829350381186300,4.479186279296875,0.002279473003000021,-0.002812473103404045,-0.00006352714262902737
1672829350391132400,4.48913232421875,0.0033447365276515484,-0.002812473103404045,0.0020669999066740274
1672829350401079000,4.4990791015625,-0.0009163175709545612,-0.008138790726661682,0.004197526723146439
1672829350411026400,4.5090263671875,0.0033447365276515484,-0.006008263677358627,-0.002194054191932082
1672829350420971300,4.51897119140625,0.0012142094783484936,0.005709635093808174,0.0010017363820225
1672829350430915600,4.52891552734375,0.0012142094783484936,0.002513844519853592,-0.00006352714262902737
1672829350440860200,4.538860107421875,0.002279473003000021,0.0003833174705505371,-0.00006352714262902737
1672829350450804700,4.5488046875,0.002279473003000021,0.007840162143111229,0.0020669999066740274
1672829350460749300,4.558749267578125,0.0033447365276515484,0.018492797389626503,-0.0011287906672805548
1672829350470694400,4.5686943359375,0.002279473003000021,0.0067748986184597015,-0.00006352714262902737
1672829350480641800,4.578641845703125,0.0012142094783484936,0.012101216241717339,0.0010017363820225
1672829350490590500,4.588590576171875,0.0012142094783484936,0.02381911501288414,0.0010017363820225
1672829350500537300,4.598537353515625,0.0033447365276515484,0.002513844519853592,0.0010017363820225
1672829350510483200,4.608483154296875,0.002279473003000021,0.013166479766368866,0.0010017363820225
1672829350520429300,4.61842919921875,0.0033447365276515484,0.01529700681567192,-0.00006352714262902737
1672829350530381800,4.6283818359375,0.0012142094783484936,0.014231743291020393,-0.00006352714262902737
1672829350540321300,4.6383212890625,0.002279473003000021,0.009970689192414284,-0.00006352714262902737
1672829350550260700,4.6482607421875,0.0012142094783484936,0.0035791080445051193,0.0010017363820225
1672829350560200700,4.65820068359375,0.0012142094783484936,0.004644371569156647,-0.00006352714262902737
1672829350570141400,4.668141357421875,0.002279473003000021,0.002513844519853592,-0.00006352714262902737
1672829350580083200,4.678083251953125,0.0012142094783484936,-0.019856689497828484,0.006328053772449493
1672829350590025700,4.688025634765625,0.002279473003000021,0.014231743291020393,0.0010017363820225
1672829350599969500,4.697969482421875,0.002279473003000021,-0.002812473103404045,0.0010017363820225
1672829350609914400,4.707914306640625,0.002279473003000021,0.005709635093808174,-0.00006352714262902737
1672829350619860500,4.717860595703125,0.0033447365276515484,0.0014485809952020645,0.0010017363820225
1672829350629807600,4.7278076171875,0.002279473003000021,0.002513844519853592,0.0020669999066740274
1672829350639755800,4.737755859375,0.002279473003000021,0.0035791080445051193,0.0010017363820225
1672829350649704700,4.74770458984375,0.002279473003000021,0.0035791080445051193,0.0010017363820225
1672829350659654700,4.757654541015625,0.002279473003000021,0.0035791080445051193,-0.00006352714262902737
1672829350669604900,4.76760498046875,0.0012142094783484936,0.0035791080445051193,0.0010017363820225
1672829350679555600,4.7775556640625,0.0012142094783484936,0.0014485809952020645,0.0020669999066740274
1672829350689506300,4.78750634765625,0.0012142094783484936,0.0035791080445051193,0.0010017363820225
1672829350699456500,4.79745654296875,0.00014894595369696617,0.004644371569156647,0.0010017363820225
1672829350709402600,4.807402587890625,0.002279473003000021,0.0035791080445051193,0.0010017363820225
1672829350719348500,4.817348388671875,0.002279473003000021,0.0014485809952020645,-0.00006352714262902737
1672829350729294300,4.82729443359375,0.002279473003000021,0.002513844519853592,0.0020669999066740274
1672829350739240200,4.837240234375,0.00014894595369696617,0.002513844519853592,-0.00006352714262902737
1672829350749186300,4.847186279296875,0.0033447365276515484,0.0014485809952020645,0.0010017363820225
1672829350759132200,4.857132080078125,0.002279473003000021,0.0035791080445051193,0.0020669999066740274
1672829350769078000,4.867078125,0.00014894595369696617,0.0035791080445051193,0.0010017363820225
1672829350779024100,4.877024169921875,0.00014894595369696617,0.0035791080445051193,0.0010017363820225
1672829350788970000,4.886969970703125,0.002279473003000021,0.0035791080445051193,-0.00006352714262902737
1672829350798915800,4.896915771484375,0.0012142094783484936,0.0035791080445051193,-0.00006352714262902737
1672829350808862000,4.906862060546875,0.002279473003000021,0.0014485809952020645,0.0010017363820225
1672829350818807800,4.916807861328125,0.0012142094783484936,0.0035791080445051193,-0.00006352714262902737
1672829350828753700,4.926753662109375,0.0012142094783484936,0.002513844519853592,-0.00006352714262902737
1672829350838699800,4.93669970703125,0.0012142094783484936,0.0014485809952020645,0.0010017363820225
1672829350848645600,4.946645751953125,0.0012142094783484936,0.0035791080445051193,-0.00006352714262902737
1672829350858591500,4.956591552734375,0.002279473003000021,0.0035791080445051193,-0.00006352714262902737
1672829350868537600,4.96653759765625,0.0012142094783484936,0.0035791080445051193,-0.00006352714262902737
1672829350878483500,4.9764833984375,0.002279473003000021,0.002513844519853592,0.0010017363820225
1672829350888429300,4.98642919921875,0.0012142094783484936,0.002513844519853592,0.003132263431325555
1672829350898375400,4.99637548828125,0.0012142094783484936,0.0035791080445051193,0.0010017363820225
1672829350908321300,5.0063212890625,0.002279473003000021,0.0014485809952020645,0.0010017363820225
1672829350918267100,5.01626708984375,0.0012142094783484936,0.002513844519853592,-0.0011287906672805548
1672829350928213200,5.026213134765625,0.0012142094783484936,0.002513844519853592,0.0010017363820225
1672829350938159000,5.0361591796875,0.002279473003000021,0.002513844519853592,0.0010017363820225
1672829350948105000,5.04610498046875,0.0012142094783484936,0.002513844519853592,-0.0011287906672805548
1672829350958050800,5.05605078125,0.002279473003000021,0.002513844519853592,-0.00006352714262902737
1672829350967997000,5.065996826171875,0.002279473003000021,0.002513844519853592,0.0010017363820225
1672829350977942800,5.07594287109375,0.00014894595369696617,0.002513844519853592,0.0010017363820225
1672829350987888600,5.085888671875,0.0012142094783484936,0.002513844519853592,-0.0011287906672805548
1672829350997834800,5.095834716796875,0.002279473003000021,0.002513844519853592,0.0010017363820225
1672829351007780600,5.105780517578125,0.002279473003000021,0.0035791080445051193,0.0020669999066740274
1672829351017726500,5.1157265625,0.002279473003000021,0.004644371569156647,0.0020669999066740274
1672829351027672600,5.125672607421875,0.002279473003000021,0.0035791080445051193,0.0020669999066740274
1672829351037618400,5.135618408203125,0.002279473003000021,0.002513844519853592,-0.002194054191932082
1672829351047564300,5.145564208984375,0.002279473003000021,0.0035791080445051193,-0.00006352714262902737
1672829351057510400,5.155510498046875,-0.0009163175709545612,0.004644371569156647,-0.00006352714262902737
1672829351067456300,5.165456298828125,0.0012142094783484936,0.002513844519853592,-0.00006352714262902737
1672829351077402000,5.175402099609375,0.0012142094783484936,0.004644371569156647,-0.00006352714262902737
1672829351087348200,5.18534814453125,0.002279473003000021,0.0035791080445051193,-0.0011287906672805548
1672829351097294000,5.195294189453125,0.00014894595369696617,0.0014485809952020645,-0.00006352714262902737
1672829351107240000,5.205239990234375,0.0012142094783484936,0.0035791080445051193,-0.0011287906672805548
1672829351117186000,5.21518603515625,0.0033447365276515484,0.002513844519853592,0.0010017363820225
1672829351127132000,5.2251318359375,0.002279473003000021,0.002513844519853592,-0.00006352714262902737
1672829351137077800,5.235077880859375,0.0012142094783484936,0.004644371569156647,0.0010017363820225
1672829351147024000,5.24502392578125,0.002279473003000021,0.002513844519853592,-0.00006352714262902737
1672829351156969700,5.2549697265625,0.002279473003000021,0.002513844519853592,-0.00006352714262902737
1672829351166915600,5.26491552734375,0.002279473003000021,0.004644371569156647,0.0010017363820225
1672829351176861400,5.274861328125,0.0012142094783484936,0.002513844519853592,0.0010017363820225
1672829351186807600,5.2848076171875,0.0012142094783484936,0.004644371569156647,-0.0011287906672805548
1672829351196753400,5.29475341796875,0.00014894595369696617,0.004644371569156647,-0.00006352714262902737
1672829351206699500,5.304699462890625,0.002279473003000021,0.005709635093808174,-0.00006352714262902737
1672829351216645400,5.314645263671875,0.0012142094783484936,0.002513844519853592,-0.00006352714262902737
1672829351226591500,5.324591552734375,0.002279473003000021,0.0035791080445051193,0.0010017363820225
1672829351236537300,5.334537353515625,0.0012142094783484936,0.002513844519853592,0.0010017363820225
1672829351246483500,5.3444833984375,0.0012142094783484936,0.0035791080445051193,-0.0011287906672805548
1672829351256429300,5.35442919921875,0.002279473003000021,0.002513844519853592,0.0010017363820225
1672829351266375400,5.36437548828125,0.0012142094783484936,0.0035791080445051193,-0.00006352714262902737
1672829351276321300,5.3743212890625,0.0012142094783484936,0.002513844519853592,-0.00006352714262902737
1672829351286267400,5.384267333984375,0.002279473003000021,0.0035791080445051193,0.0010017363820225
1672829351296213200,5.394213134765625,0.0033447365276515484,0.0035791080445051193,-0.00006352714262902737
1672829351306159400,5.404159423828125,0.002279473003000021,0.0035791080445051193,0.0010017363820225
1672829351316105200,5.414105224609375,0.0012142094783484936,0.002513844519853592,0.0010017363820225
1672829351326051300,5.42405126953125,0.002279473003000021,0.002513844519853592,-0.00006352714262902737
1672829351335997200,5.4339970703125,0.0012142094783484936,0.002513844519853592,0.0020669999066740274
1672829351345943300,5.443943359375,0.0012142094783484936,0.0035791080445051193,-0.00006352714262902737
1672829351355889200,5.45388916015625,0.0033447365276515484,0.002513844519853592,0.0020669999066740274
1672829351365835300,5.463835205078125,0.002279473003000021,0.002513844519853592,-0.00006352714262902737
1672829351375781400,5.473781494140625,0.0012142094783484936,0.002513844519853592,-0.00006352714262902737
1672829351385727200,5.483727294921875,0.0012142094783484936,0.0035791080445051193,-0.00006352714262902737
1672829351395673300,5.49367333984375,0.0012142094783484936,0.0035791080445051193,0.0020669999066740274
1672829351405619200,5.503619140625,0.0012142094783484936,0.0035791080445051193,0.0020669999066740274
1672829351415565300,5.5135654296875,0.002279473003000021,0.0035791080445051193,0.0010017363820225
1672829351425511200,5.52351123046875,0.0012142094783484936,0.002513844519853592,0.0020669999066740274
1672829351435457300,5.533457275390625,0.0033447365276515484,0.0014485809952020645,-0.00006352714262902737
1672829351445403100,5.543403076171875,0.0012142094783484936,0.0035791080445051193,-0.00006352714262902737
1672829351455349200,5.553349365234375,0.0012142094783484936,0.002513844519853592,-0.00006352714262902737
1672829351465295000,5.563295166015625,0.0012142094783484936,0.002513844519853592,0.0010017363820225
1672829351475241200,5.5732412109375,0.002279473003000021,0.002513844519853592,0.0010017363820225
1672829351485187000,5.58318701171875,0.002279473003000021,0.002513844519853592,-0.00006352714262902737
1672829351495133200,5.59313330078125,0.0033447365276515484,0.004644371569156647,0.0010017363820225
1672829351505079000,5.6030791015625,0.0012142094783484936,0.002513844519853592,-0.0011287906672805548
1672829351515025200,5.613025146484375,0.002279473003000021,0.0035791080445051193,0.0010017363820225
1672829351524971000,5.622970947265625,0.002279473003000021,0.0014485809952020645,-0.00006352714262902737
1672829351534917000,5.632917236328125,0.0012142094783484936,0.0035791080445051193,0.0010017363820225
1672829351544863000,5.642863037109375,0.002279473003000021,0.002513844519853592,0.0010017363820225
1672829351554809000,5.65280908203125,0.002279473003000021,0.0035791080445051193,-0.00006352714262902737
1672829351564755000,5.6627548828125,0.0033447365276515484,0.0035791080445051193,-0.002194054191932082
1672829351574701000,5.672701171875,0.0012142094783484936,0.004644371569156647,-0.0011287906672805548
1672829351584647000,5.68264697265625,0.0012142094783484936,0.004644371569156647,-0.0011287906672805548
1672829351594593000,5.692593017578125,0.0012142094783484936,0.002513844519853592,-0.00006352714262902737
1672829351604539100,5.7025390625,0.0012142094783484936,0.0035791080445051193,0.0010017363820225
1672829351614485000,5.712485107421875,0.0012142094783484936,0.0003833174705505371,-0.00006352714262902737
1672829351624431000,5.72243115234375,0.002279473003000021,0.002513844519853592,0.003132263431325555
1672829351634377000,5.732376953125,0.002279473003000021,0.0035791080445051193,0.0010017363820225
1672829351644323000,5.742322998046875,0.002279473003000021,0.0035791080445051193,-0.00006352714262902737
1672829351654269000,5.75226904296875,0.0012142094783484936,0.0035791080445051193,0.0010017363820225
1672829351664215000,5.762215087890625,0.00014894595369696617,0.002513844519853592,-0.00006352714262902737
1672829351674161000,5.772160888671875,0.00014894595369696617,0.002513844519853592,0.003132263431325555
1672829351684107000,5.78210693359375,0.00014894595369696617,0.002513844519853592,0.0010017363820225
1672829351694052900,5.792052978515625,0.002279473003000021,0.0035791080445051193,0.0010017363820225
1672829351703999000,5.8019990234375,0.002279473003000021,0.0035791080445051193,-0.00006352714262902737
1672829351713944800,5.81194482421875,0.0012142094783484936,0.0035791080445051193,-0.00006352714262902737
1672829351723890700,5.821890625,0.002279473003000021,0.0035791080445051193,0.0010017363820225
1672829351733836800,5.8318369140625,0.0012142094783484936,0.002513844519853592,0.0020669999066740274
1672829351743782700,5.84178271484375,0.002279473003000021,0.0035791080445051193,0.0010017363820225
1672829351753728500,5.851728515625,0.0012142094783484936,0.002513844519853592,0.0010017363820225
1672829351763674600,5.861674560546875,0.0012142094783484936,0.0035791080445051193,-0.00006352714262902737
1672829351773620500,5.871620361328125,0.0033447365276515484,0.0035791080445051193,-0.00006352714262902737
1672829351783566300,5.88156640625,0.0012142094783484936,0.004644371569156647,0.0010017363820225
1672829351793512400,5.891512451171875,0.0033447365276515484,0.0035791080445051193,-0.00006352714262902737
1672829351803458300,5.901458251953125,0.0012142094783484936,0.002513844519853592,0.0010017363820225
1672829351813404200,5.911404052734375,0.0012142094783484936,0.002513844519853592,-0.00006352714262902737
1672829351823350300,5.921350341796875,0.002279473003000021,0.0014485809952020645,0.0010017363820225
1672829351833296100,5.931296142578125,0.0012142094783484936,0.0035791080445051193,0.0010017363820225
1672829351843242000,5.941241943359375,0.004410000052303076,0.0035791080445051193,0.0020669999066740274
1672829351853188000,5.95118798828125,0.0012142094783484936,0.0014485809952020645,0.0010017363820225
1672829351863134000,5.961134033203125,0.0012142094783484936,0.0035791080445051193,-0.0011287906672805548
1672829351873079800,5.971079833984375,0.002279473003000021,0.002513844519853592,-0.00006352714262902737
1672829351883025700,5.981025634765625,0.002279473003000021,0.002513844519853592,0.0010017363820225
1672829351892971800,5.9909716796875,0.0012142094783484936,0.002513844519853592,0.0010017363820225
1672829351902917600,6.000917724609375,0.0012142094783484936,0.0035791080445051193,0.0010017363820225
1672829351912863500,6.010863525390625,0.0012142094783484936,0.002513844519853592,-0.0011287906672805548
1672829351922809600,6.0208095703125,0.0012142094783484936,0.0035791080445051193,-0.00006352714262902737
1672829351932755500,6.03075537109375,0.002279473003000021,0.002513844519853592,0.0010017363820225
1672829351942701300,6.040701416015625,0.002279473003000021,0.0035791080445051193,-0.00006352714262902737
1672829351952647400,6.0506474609375,0.0012142094783484936,0.002513844519853592,0.0010017363820225
1672829351962593300,6.06059326171875,0.0012142094783484936,0.002513844519853592,0.0010017363820225
1672829351972539100,6.0705390625,0.00014894595369696617,0.0035791080445051193,0.0010017363820225
1672829351982485200,6.0804853515625,0.0012142094783484936,0.002513844519853592,-0.00006352714262902737
1672829351992431000,6.09043115234375,0.0012142094783484936,0.0035791080445051193,0.0010017363820225
1672829352002377000,6.100376953125,0.0012142094783484936,0.002513844519853592,0.0010017363820225
1672829352012323000,6.110322998046875,0.0012142094783484936,0.0035791080445051193,-0.00006352714262902737
1672829352022269000,6.12026904296875,0.0012142094783484936,0.002513844519853592,-0.00006352714262902737
1672829352032214800,6.13021484375,0.002279473003000021,0.0014485809952020645,0.0010017363820225
1672829352042161000,6.140160888671875,0.0012142094783484936,0.0035791080445051193,0.0020669999066740274
1672829352052106800,6.150106689453125,0.00014894595369696617,0.002513844519853592,0.0010017363820225
1672829352062052600,6.160052490234375,0.002279473003000021,0.0035791080445051193,0.0010017363820225
1672829352071998700,6.169998779296875,0.002279473003000021,0.0035791080445051193,0.0010017363820225
1672829352081944600,6.179944580078125,0.002279473003000021,0.0003833174705505371,0.0020669999066740274
1672829352091890400,6.189890380859375,0.002279473003000021,0.004644371569156647,0.0010017363820225
1672829352101836300,6.199836181640625,0.002279473003000021,0.002513844519853592,0.0010017363820225
1672829352111782400,6.209782470703125,0.0012142094783484936,0.005709635093808174,-0.00006352714262902737
1672829352121728300,6.219728271484375,0.0033447365276515484,0.002513844519853592,0.0010017363820225
1672829352131674400,6.22967431640625,0.0012142094783484936,0.002513844519853592,0.0010017363820225
1672829352141620200,6.2396201171875,0.002279473003000021,0.0035791080445051193,0.0020669999066740274
1672829352151566300,6.24956640625,0.002279473003000021,0.002513844519853592,-0.002194054191932082
1672829352161512200,6.25951220703125,0.0012142094783484936,0.0014485809952020645,-0.00006352714262902737
1672829352171458300,6.269458251953125,0.002279473003000021,0.0035791080445051193,-0.00006352714262902737
1672829352181404200,6.279404052734375,0.0012142094783484936,0.002513844519853592,-0.00006352714262902737
1672829352191350300,6.289350341796875,0.002279473003000021,0.002513844519853592,-0.00006352714262902737
1672829352201296600,6.299296630859375,0.002279473003000021,0.0035791080445051193,0.0020669999066740274
1672829352211242800,6.30924267578125,0.00014894595369696617,0.002513844519853592,-0.00006352714262902737
1672829352221188900,6.31918896484375,0.00014894595369696617,0.0035791080445051193,-0.00006352714262902737
1672829352231135200,6.32913525390625,0.0012142094783484936,0.004644371569156647,0.0010017363820225
1672829352241081300,6.339081298828125,0.002279473003000021,0.002513844519853592,0.0010017363820225
1672829352251027700,6.34902783203125,0.002279473003000021,0.0035791080445051193,0.0010017363820225
1672829352260974000,6.35897412109375,0.0033447365276515484,-0.0006819460541009903,0.003132263431325555
1672829352270920200,6.368920166015625,0.004410000052303076,-0.03903143107891083,0.005262790247797966
1672829352280866600,6.378866455078125,0.005475263576954603,-0.02518300712108612,0.003132263431325555
1672829352290811100,6.38881103515625,0.006540527101606131,-0.012399844825267792,0.003132263431325555
1672829352300755700,6.398755615234375,0.0033447365276515484,-0.0049430001527071,-0.004324581474065781
1672829352310700500,6.408700439453125,0.044890012592077255,0.004644371569156647,-0.00006352714262902737
1672829352320645400,6.418645263671875,0.2749869227409363,0.014231743291020393,0.0020669999066740274
1672829352330590200,6.428590087890625,0.5711302161216736,0.014231743291020393,-0.004324581474065781
1672829352340535600,6.43853564453125,0.8694040179252625,0.0035791080445051193,0.003132263431325555
1672829352350482200,6.448482177734375,1.1911135911941528,-0.0017472095787525177,-0.004324581474065781
1672829352360429300,6.45842919921875,1.4872568845748901,-0.0049430001527071,-0.004324581474065781
1672829352370378000,6.4683779296875,1.7365285158157349,-0.006008263677358627,-0.0011287906672805548
1672829352380324900,6.478324951171875,1.9272106885910034,-0.007073527202010155,0.013784898445010185
1672829352390276000,6.488276123046875,2.0593032836914062,-0.008138790726661682,0.003132263431325555
1672829352400236000,6.498236083984375,2.1477203369140625,-0.00920405425131321,-0.009650899097323418
1672829352410205700,6.508205810546875,2.160503387451172,0.002513844519853592,-0.011781426146626472
1672829352420108800,6.51810888671875,2.061433792114258,0.022753851488232613,0.0020669999066740274
1672829352430013400,6.528013427734375,1.8877959251403809,-0.01346510834991932,0.004197526723146439
1672829352439921400,6.53792138671875,1.7162885665893555,0.0014485809952020645,0.006328053772449493
1672829352449834200,6.547834228515625,1.5660864114761353,-0.010269317775964737,-0.004324581474065781
1672829352459752400,6.55775244140625,1.4435811042785645,0.0003833174705505371,-0.0011287906672805548
1672829352469677600,6.567677490234375,1.3647515773773193,-0.018791425973176956,-0.0011287906672805548
1672829352479610000,6.577610107421875,1.3509031534194946,-0.0038777366280555725,-0.0011287906672805548
1672829352489549800,6.5875498046875,1.3903179168701172,-0.012399844825267792,-0.0032593177165836096
1672829352499497200,6.597497314453125,1.4776694774627686,-0.0049430001527071,0.004197526723146439
1672829352509451500,6.607451416015625,1.6055010557174683,-0.01346510834991932,0.0020669999066740274
1672829352519412200,6.617412109375,1.7290716171264648,-0.008138790726661682,-0.0064551085233688354
1672829352529378800,6.62737890625,1.832402229309082,-0.00920405425131321,-0.007520372048020363
1672829352539349800,6.637349853515625,1.916558027267456,-0.008138790726661682,-0.002194054191932082
1672829352549324300,6.64732421875,1.979408621788025,-0.0017472095787525177,0.004197526723146439
1672829352559300900,6.65730078125,1.9975180625915527,-0.0038777366280555725,-0.004324581474065781
1672829352569278200,6.6672783203125,1.9644949436187744,-0.00920405425131321,-0.004324581474065781
1672829352579244300,6.677244384765625,1.8835349082946777,-0.00920405425131321,0.0010017363820225
1672829352589190100,6.687190185546875,1.7812695503234863,-0.0166608989238739,-0.0032593177165836096
1672829352599136300,6.69713623046875,1.668351650238037,0.0035791080445051193,0.0020669999066740274
1672829352609082000,6.70708203125,1.5533032417297363,0.009970689192414284,-0.0011287906672805548
1672829352619028000,6.717028076171875,1.4446463584899902,-0.002812473103404045,0.0010017363820225
1672829352628974000,6.72697412109375,1.3636863231658936,0.004644371569156647,0.004197526723146439
1672829352638920000,6.736919921875,1.3050967454910278,0.009970689192414284,0.0020669999066740274
1672829352648865800,6.74686572265625,1.2603557109832764,0.013166479766368866,0.0020669999066740274
1672829352658812000,6.75681201171875,1.2443767786026,0.027014905586838722,-0.0032593177165836096
1672829352668757800,6.7667578125,1.2241367101669312,0.008905425667762756,-0.0064551085233688354
1672829352678703600,6.77670361328125,1.2060272693634033,0.016362270340323448,-0.0011287906672805548
1672829352688649700,6.786649658203125,1.1218714714050293,0.02381911501288414,-0.00006352714262902737
1672829352698595600,6.796595703125,0.9983009099960327,0.013166479766368866,-0.004324581474065781
1672829352708541400,6.80654150390625,0.8480987548828125,0.021688587963581085,0.0010017363820225
1672829352718487600,6.816487548828125,0.7032228708267212,0.012101216241717339,0.0020669999066740274
1672829352728433400,6.826433349609375,0.5519554615020752,0.020623324438929558,-0.002194054191932082
1672829352738379300,6.836379150390625,0.34316378831863403,0.06003807485103607,-0.0064551085233688354
1672829352748325400,6.846325439453125,0.057673174887895584,-0.00920405425131321,0.003132263431325555
1672829352758271200,6.856271240234375,0.008671054616570473,0.033406488597393036,-0.002194054191932082
1672829352768217000,6.866217041015625,0.0033447365276515484,-0.0038777366280555725,0.0020669999066740274
1672829352778163200,6.8761630859375,0.0012142094783484936,0.005709635093808174,-0.00006352714262902737
1672829352788109000,6.886109130859375,0.0012142094783484936,0.0003833174705505371,-0.0011287906672805548
1672829352798055000,6.896054931640625,0.0033447365276515484,-0.0006819460541009903,0.004197526723146439
1672829352808000800,6.906000732421875,0.002279473003000021,-0.002812473103404045,-0.00006352714262902737
1672829352817947000,6.91594677734375,0.002279473003000021,0.0067748986184597015,-0.0011287906672805548
1672829352827892700,6.925892822265625,0.0033447365276515484,0.0003833174705505371,-0.00006352714262902737
1672829352837838600,6.935838623046875,0.002279473003000021,0.0003833174705505371,0.0010017363820225
1672829352847784700,6.94578466796875,0.004410000052303076,0.002513844519853592,0.0010017363820225
1672829352857730600,6.95573046875,0.002279473003000021,0.0035791080445051193,-0.0011287906672805548
1672829352867676400,6.965676513671875,0.0012142094783484936,0.0014485809952020645,0.0020669999066740274
1672829352877622500,6.97562255859375,0.0012142094783484936,-0.0006819460541009903,-0.00006352714262902737
1672829352887568400,6.985568359375,0.002279473003000021,0.002513844519853592,0.0020669999066740274
1672829352897514200,6.99551416015625,0.002279473003000021,0.0035791080445051193,0.0010017363820225
1672829352907460400,7.00546044921875,0.00014894595369696617,0.002513844519853592,0.0010017363820225
1672829352917406200,7.01540625,-0.0009163175709545612,0.005709635093808174,0.0010017363820225
1672829352927352000,7.02535205078125,-0.0041121081449091434,0.04299385845661163,0.004197526723146439
1672829352937298200,7.035298095703125,-0.007307898718863726,0.01529700681567192,0.0020669999066740274
1672829352947244000,7.045244140625,-0.11489951610565186,-0.006008263677358627,0.005262790247797966
1672829352957190000,7.05518994140625,-0.3151690661907196,-0.01346510834991932,0.006328053772449493
1672829352967136000,7.065135986328125,-0.4557838439941406,-0.0049430001527071,0.003132263431325555
1672829352977081900,7.075081787109375,-0.5399396419525146,-0.002812473103404045,0.006328053772449493
1672829352987028000,7.085028076171875,-0.6081165075302124,0.0003833174705505371,0.008458580821752548
1672829352996973800,7.094973876953125,-0.694402813911438,0.012101216241717339,0.006328053772449493
1672829353006920000,7.104919921875,-0.8296912908554077,0.0035791080445051193,0.010589107871055603
1672829353016865800,7.11486572265625,-0.9724366068840027,0.0035791080445051193,0.01165437139570713
1672829353026812000,7.12481201171875,-1.2238388061523438,0.005709635093808174,0.003132263431325555
1672829353036757800,7.1347578125,-1.4422178268432617,-0.0049430001527071,0.01591542549431324
1672829353046703900,7.144703857421875,-1.6382262706756592,-0.0017472095787525177,0.012719634920358658
1672829353056649700,7.154649658203125,-1.8044074773788452,-0.0017472095787525177,0.009523844346404076
1672829353066595800,7.164595947265625,-1.9354348182678223,0.0035791080445051193,0.010589107871055603
1672829353076541700,7.174541748046875,-2.0824413299560547,0.01529700681567192,0.006328053772449493
1672829353086487800,7.18448779296875,-2.210272789001465,0.005709635093808174,0.010589107871055603
1672829353096434000,7.194433837890625,-2.3668665885925293,0.012101216241717339,0.005262790247797966
1672829353106379800,7.2043798828125,-2.541569709777832,0.005709635093808174,0.005262790247797966
1672829353116326000,7.214325927734375,-2.7077507972717285,0.009970689192414284,0.0020669999066740274
1672829353126271700,7.224271728515625,-2.815342426300049,0.012101216241717339,-0.00006352714262902737
1672829353136217900,7.2342177734375,-2.8760626316070557,0.0014485809952020645,0.007393317297101021
1672829353146163700,7.244163818359375,-2.9176077842712402,0.0035791080445051193,0.010589107871055603
1672829353156109800,7.25410986328125,-2.9516961574554443,0.037667542695999146,0.01165437139570713
1672829353166055700,7.2640556640625,-2.973001480102539,0.0397980660200119,0.0020669999066740274
1672829353176001800,7.274001708984375,-2.9857847690582275,0.027014905586838722,0.008458580821752548
1672829353185947600,7.28394775390625,-2.9570226669311523,0.01955806091427803,0.01165437139570713
1672829353195893800,7.293893798828125,-2.873932123184204,-0.00920405425131321,0.01165437139570713
1672829353205839600,7.303839599609375,-2.75994873046875,0.011035952717065811,0.010589107871055603
1672829353215785700,7.31378564453125,-2.6374435424804688,0.027014905586838722,0.010589107871055603
1672829353225731600,7.323731689453125,-2.5287866592407227,0.027014905586838722,0.012719634920358658
1672829353235677700,7.333677734375,-2.417999267578125,-0.028378797695040703,0.003132263431325555
1672829353245623600,7.34362353515625,-2.2624707221984863,-0.007073527202010155,0.009523844346404076
1672829353255569700,7.353569580078125,-2.08137583732605,0.016362270340323448,0.0020669999066740274
1672829353265515500,7.363515625,-1.9045422077178955,0.009970689192414284,0.007393317297101021
1672829353275461600,7.373461669921875,-1.7490137815475464,0.01529700681567192,0.01165437139570713
1672829353285407500,7.383407470703125,-1.5775063037872314,0.0280801709741354,0.006328053772449493
1672829353295353600,7.393353515625,-1.3889546394348145,0.017427533864974976,0.006328053772449493
1672829353305299500,7.403299560546875,-1.1886851787567139,0.0003833174705505371,0.007393317297101021
1672829353315245600,7.41324560546875,-0.9916113615036011,0.013166479766368866,0.007393317297101021
1672829353325191700,7.423191650390625,-0.8094512820243835,-0.0006819460541009903,0.0010017363820225
1672829353335137500,7.433137451171875,-0.6411396861076355,-0.0049430001527071,0.005262790247797966
1672829353345083600,7.443083740234375,-0.48348069190979004,-0.00920405425131321,0.005262790247797966
1672829353355029500,7.453029541015625,-0.3290174901485443,-0.014530371874570847,0.003132263431325555
1672829353364975600,7.4629755859375,-0.18627217411994934,-0.024117743596434593,0.003132263431325555
1672829353374921500,7.47292138671875,-0.03820054233074188,-0.023052480071783066,0.003132263431325555
1672829353384867600,7.48286767578125,0.057673174887895584,-0.018791425973176956,-0.002194054191932082
1672829353394813400,7.4928134765625,-0.0041121081449091434,-0.044357746839523315,-0.0011287906672805548
1672829353404759600,7.502759521484375,0.0033447365276515484,-0.019856689497828484,-0.0011287906672805548
1672829353414705400,7.512705322265625,0.006540527101606131,-0.026248270645737648,-0.00006352714262902737
1672829353424651500,7.522651611328125,0.0033447365276515484,-0.015595635399222374,-0.00006352714262902737
1672829353434597400,7.532597412109375,0.0033447365276515484,-0.006008263677358627,-0.0011287906672805548
1672829353444543500,7.54254345703125,0.005475263576954603,-0.010269317775964737,0.0010017363820225
1672829353454489300,7.5524892578125,0.016127899289131165,0.0067748986184597015,0.0010017363820225
1672829353464435500,7.562435546875,0.11732792854309082,0.014231743291020393,0.0010017363820225
1672829353474381300,7.57238134765625,0.22811533510684967,0.0035791080445051193,-0.0011287906672805548
1672829353484327400,7.582327392578125,0.3165322244167328,0.0003833174705505371,0.0020669999066740274
1672829353494273300,7.592273193359375,0.3836438059806824,-0.002812473103404045,0.0020669999066740274
1672829353504219400,7.602219482421875,0.44116804003715515,0.004644371569156647,0.0010017363820225
1672829353514165200,7.612165283203125,0.4954964816570282,0.0035791080445051193,0.0020669999066740274
1672829353524111400,7.622111328125,0.5572817921638489,0.0003833174705505371,-0.00006352714262902737
1672829353534057500,7.632057373046875,0.607349157333374,-0.0006819460541009903,-0.002194054191932082
1672829353544003300,7.64200341796875,0.6425029039382935,0.0035791080445051193,0.0020669999066740274
1672829353553949400,7.651949462890625,0.7000271081924438,0.0003833174705505371,-0.0011287906672805548
1672829353563895300,7.661895263671875,0.7735303044319153,-0.0038777366280555725,0.0010017363820225
1672829353573841400,7.67184130859375,0.8662081956863403,-0.0038777366280555725,0.006328053772449493
1672829353583787300,7.681787353515625,0.9716693162918091,-0.002812473103404045,0.004197526723146439
1672829353593733400,7.6917333984375,1.0728693008422852,0.0014485809952020645,0.0020669999066740274
1672829353603679200,7.70167919921875,1.1804609298706055,-0.00920405425131321,-0.0011287906672805548
1672829353613625300,7.711625244140625,1.2880525588989258,-0.0006819460541009903,-0.004324581474065781
1672829353623571200,7.7215712890625,1.3935136795043945,-0.002812473103404045,-0.00006352714262902737
1672829353633517300,7.731517333984375,1.5021705627441406,-0.007073527202010155,-0.0032593177165836096
1672829353643463200,7.741463134765625,1.660894751548767,-0.010269317775964737,-0.004324581474065781
1672829353653409300,7.7514091796875,1.849446415901184,-0.0049430001527071,-0.002194054191932082
1672829353663355100,7.761355224609375,2.00071382522583,-0.006008263677358627,-0.00006352714262902737
1672829353673301200,7.77130126953125,2.1040444374084473,-0.008138790726661682,-0.005389844998717308
1672829353683247000,7.7812470703125,2.155177116394043,-0.0038777366280555725,-0.002194054191932082
1672829353693193200,7.791193115234375,2.1775476932525635,-0.024117743596434593,0.003132263431325555
1672829353703139000,7.80113916015625,2.1786129474639893,-0.023052480071783066,0.0010017363820225
1672829353713085200,7.811085205078125,2.1583728790283203,-0.02198721654713154,-0.0032593177165836096
1672829353723031000,7.821031005859375,2.110435962677002,-0.02198721654713154,-0.0064551085233688354
1672829353732977200,7.83097705078125,2.051846504211426,-0.01346510834991932,-0.007520372048020363
1672829353742923000,7.840923095703125,1.9570380449295044,-0.00920405425131321,-0.0064551085233688354
1672829353752869000,7.850869140625,1.8164232969284058,-0.010269317775964737,-0.002194054191932082
1672829353762815200,7.860815185546875,1.6747431755065918,-0.0017472095787525177,-0.00006352714262902737
1672829353772761000,7.870760986328125,1.57247793674469,0.01529700681567192,-0.0032593177165836096
1672829353782707200,7.880707275390625,1.5415853261947632,0.0067748986184597015,0.0020669999066740274
1672829353792653000,7.890653076171875,1.5788694620132446,0.007840162143111229,-0.0032593177165836096
1672829353802599200,7.90059912109375,1.6534379720687866,0.011035952717065811,0.0020669999066740274
1672829353812545000,7.910544921875,1.7162885665893555,-0.0006819460541009903,-0.0032593177165836096
1672829353822491100,7.9204912109375,1.7503769397735596,0.008905425667762756,0.0010017363820225
1672829353832437000,7.93043701171875,1.782334804534912,0.007840162143111229,-0.005389844998717308
1672829353842383000,7.940383056640625,1.8036401271820068,0.014231743291020393,-0.0011287906672805548
1672829353852329000,7.950328857421875,1.832402229309082,-0.0006819460541009903,0.004197526723146439
1672829353862275000,7.960275146484375,1.8537075519561768,-0.0017472095787525177,-0.002194054191932082
1672829353872221000,7.970220947265625,1.862229585647583,0.016362270340323448,-0.005389844998717308
1672829353882167000,7.9801669921875,1.8846001625061035,0.0014485809952020645,0.010589107871055603
1672829353892113000,7.99011279296875,1.9431896209716797,0.0035791080445051193,-0.005389844998717308
1672829353902059000,8.00005908203125,2.0433244705200195,0.002513844519853592,-0.0032593177165836096
1672829353912004900,8.0100048828125,2.165829658508301,0.0014485809952020645,-0.005389844998717308
1672829353921951000,8.019950927734374,2.2968571186065674,0.008905425667762756,0.004197526723146439
1672829353931896800,8.029896728515626,2.4108402729034424,-0.0017472095787525177,-0.007520372048020363
1672829353941843000,8.039843017578125,2.4406676292419434,0.011035952717065811,-0.0064551085233688354
1672829353951788800,8.049788818359374,2.4204277992248535,0.002513844519853592,-0.0011287906672805548
1672829353961735000,8.05973486328125,2.3863391876220703,0.01529700681567192,-0.0032593177165836096
1672829353971680800,8.0696806640625,2.338402509689331,0.0003833174705505371,0.0010017363820225
1672829353981627000,8.079626953125,2.2574424743652344,0.014231743291020393,0.0010017363820225
1672829353991573000,8.089572998046876,2.163699150085449,0.016362270340323448,-0.002194054191932082
1672829354001518800,8.099518798828125,2.1029791831970215,0.011035952717065811,-0.002194054191932082
1672829354011465000,8.10946484375,2.0443897247314453,-0.0017472095787525177,-0.0064551085233688354
1672829354021410800,8.119410888671876,1.9889960289001465,0.0067748986184597015,-0.005389844998717308
1672829354031357000,8.12935693359375,1.9485160112380981,0.01529700681567192,-0.002194054191932082
1672829354041303000,8.139302978515625,1.9314717054367065,0.005709635093808174,-0.0032593177165836096
1672829354051249000,8.149248779296874,1.9389286041259766,0.0067748986184597015,-0.004324581474065781
1672829354061194800,8.15919482421875,1.9154927730560303,-0.0017472095787525177,-0.002194054191932082
1672829354071140600,8.169140625,1.869686484336853,-0.012399844825267792,-0.0032593177165836096
1672829354081086500,8.17908642578125,1.8238800764083862,-0.0049430001527071,-0.002194054191932082
1672829354091032300,8.1890322265625,1.7802042961120605,-0.0049430001527071,0.004197526723146439
1672829354100978400,8.198978515625,1.7493116855621338,-0.010269317775964737,0.004197526723146439
1672829354110924300,8.20892431640625,1.7258758544921875,-0.0017472095787525177,0.003132263431325555
1672829354120870400,8.218870361328126,1.7045706510543823,-0.008138790726661682,-0.002194054191932082
1672829354130816500,8.22881640625,1.6875263452529907,-0.006008263677358627,-0.004324581474065781
1672829354140763000,8.238762939453125,1.6470463275909424,-0.03477037698030472,0.0010017363820225
1672829354150709200,8.248709228515626,1.576738953590393,-0.006008263677358627,0.0020669999066740274
1672829354160656100,8.25865625,1.4723432064056396,-0.0166608989238739,-0.0011287906672805548
1672829354170604300,8.268604248046875,1.354098916053772,-0.0006819460541009903,0.003132263431325555
1672829354180554800,8.2785546875,1.2678126096725464,0.005709635093808174,0.003132263431325555
1672829354190510800,8.2885107421875,1.257159948348999,-0.00920405425131321,-0.0011287906672805548
1672829354200438500,8.2984384765625,1.3136188983917236,0.004644371569156647,0.004197526723146439
1672829354210376200,8.308376220703124,1.3849915266036987,-0.006008263677358627,0.003132263431325555
1672829354220314400,8.318314453125,1.4126883745193481,-0.024117743596434593,-0.009650899097323418
1672829354230253300,8.32825341796875,1.3999052047729492,-0.010269317775964737,-0.002194054191932082
1672829354240193800,8.33819384765625,1.3732736110687256,-0.019856689497828484,0.003132263431325555
1672829354250135300,8.34813525390625,1.3178799152374268,-0.014530371874570847,0.005262790247797966
1672829354260078600,8.35807861328125,1.2337241172790527,-0.007073527202010155,0.0010017363820225
1672829354270023200,8.368023193359376,1.160220980644226,0.002513844519853592,-0.007520372048020363
1672829354279969300,8.37796923828125,1.1271977424621582,-0.0166608989238739,-0.002194054191932082
1672829354289917000,8.3879169921875,1.1325241327285767,0.013166479766368866,0.018045952543616295
1672829354299865900,8.397865966796875,1.1612862348556519,-0.02198721654713154,0.005262790247797966
1672829354309816000,8.407816162109375,1.185787320137024,0.004644371569156647,-0.0032593177165836096
1672829354319767000,8.41776708984375,1.2017662525177002,-0.00920405425131321,0.006328053772449493
1672829354329718800,8.42771875,1.2379851341247559,-0.011334581300616264,0.0020669999066740274
1672829354339671000,8.437671142578125,1.2859220504760742,-0.00920405425131321,-0.00006352714262902737
1672829354349623600,8.44762353515625,1.3317283391952515,-0.01346510834991932,0.0010017363820225
1672829354359574300,8.45757421875,1.341315746307373,-0.0006819460541009903,-0.0032593177165836096
1672829354369520400,8.467520263671876,1.316814661026001,-0.010269317775964737,0.008458580821752548
1672829354379466200,8.47746630859375,1.281661033630371,-0.00920405425131321,0.01165437139570713
1672829354389412000,8.487412109375,1.2347893714904785,0.0014485809952020645,0.008458580821752548
1672829354399358200,8.497358154296874,1.1847220659255981,-0.0049430001527071,0.010589107871055603
1672829354409304000,8.507303955078125,1.160220980644226,0.01955806091427803,0.007393317297101021
1672829354419250000,8.51725,1.178330421447754,0.012101216241717339,-0.00006352714262902737
1672829354429196000,8.527196044921874,1.2049620151519775,-0.006008263677358627,-0.002194054191932082
1672829354439142000,8.537141845703125,1.2252020835876465,-0.018791425973176956,-0.0064551085233688354
1672829354449087700,8.547087646484375,1.2092230319976807,-0.006008263677358627,-0.004324581474065781
1672829354459033900,8.557033935546874,1.141046166419983,-0.01772616244852543,-0.007520372048020363
1672829354468979700,8.566979736328125,1.0622167587280273,-0.0006819460541009903,0.006328053772449493
1672829354478925600,8.576925537109375,0.9801914095878601,0.008905425667762756,-0.002194054191932082
1672829354488871700,8.58687158203125,0.9162756204605103,-0.00920405425131321,-0.01710774376988411
1672829354498817500,8.596817626953126,0.9066882133483887,0.025949642062187195,-0.012846689671278
1672829354508763400,8.606763427734375,0.9610166549682617,0.0035791080445051193,0.004197526723146439
1672829354518709200,8.616709228515624,1.027063012123108,-0.0049430001527071,0.005262790247797966
1672829354528655400,8.6266552734375,1.0568903684616089,-0.007073527202010155,0.0010017363820225
1672829354538601200,8.636601318359375,1.021736741065979,-0.011334581300616264,-0.004324581474065781
1672829354548547000,8.646547119140624,0.9098840355873108,-0.0006819460541009903,0.006328053772449493
1672829354558493200,8.6564931640625,0.7948355674743652,-0.0006819460541009903,0.005262790247797966
1672829354568439000,8.66643896484375,0.7468987107276917,0.009970689192414284,0.003132263431325555
1672829354578385000,8.676385009765625,0.7383766174316406,-0.006008263677358627,-0.002194054191932082
1672829354588331000,8.6863310546875,0.7330502867698669,-0.007073527202010155,-0.0011287906672805548
1672829354598276900,8.69627685546875,0.7341155409812927,-0.018791425973176956,0.01165437139570713
1672829354608222700,8.70622265625,0.7351807951927185,0.025949642062187195,0.013784898445010185
1672829354618168800,8.7161689453125,0.7394418716430664,-0.0049430001527071,0.009523844346404076
1672829354628114700,8.72611474609375,0.7405071258544922,-0.0017472095787525177,-0.002194054191932082
1672829354638060500,8.736060546875,0.6701997518539429,0.004644371569156647,-0.004324581474065781
1672829354648006700,8.746006591796874,0.5327807664871216,0.012101216241717339,0.003132263431325555
1672829354657952500,8.755952392578125,0.35701221227645874,-0.006008263677358627,0.003132263431325555
1672829354667898600,8.765898681640625,0.17804795503616333,0.018492797389626503,-0.0011287906672805548
1672829354677844500,8.775844482421874,0.027845798060297966,0.027014905586838722,0.004197526723146439
1672829354687790600,8.78579052734375,-0.007307898718863726,0.01955806091427803,0.004197526723146439
1672829354697736400,8.795736328125,0.09389213472604752,-0.044357746839523315,-0.012846689671278
1672829354707682600,8.8056826171875,0.24835534393787384,0.011035952717065811,0.003132263431325555
1672829354717628400,8.81562841796875,0.3772522211074829,0.0014485809952020645,-0.004324581474065781
1672829354727574500,8.825574462890625,0.4198627769947052,-0.04329248517751694,-0.010716162621974945
1672829354737520600,8.835520751953124,0.39003539085388184,0.013166479766368866,-0.0011287906672805548
1672829354747466500,8.845466552734376,0.3314459025859833,-0.0006819460541009903,-0.014977216720581055
1672829354757412600,8.85541259765625,0.31866273283958435,-0.010269317775964737,0.01591542549431324
1672829354767358500,8.8653583984375,0.4113406538963318,0.03553701192140579,0.0020669999066740274
1672829354777304600,8.8753046875,0.506149172782898,0.0280801709741354,0.013784898445010185
1672829354787250400,8.88525048828125,0.5136060118675232,0.041928596794605255,0.005262790247797966
1672829354797196500,8.895196533203125,0.4070796072483063,0.046189650893211365,-0.0011287906672805548
1672829354807142400,8.905142333984376,0.2547469139099121,0.049385443329811096,0.004197526723146439
1672829354817088500,8.915088623046875,0.08643528819084167,0.03553701192140579,0.003132263431325555
1672829354827034400,8.925034423828125,0.0012142094783484936,0.025949642062187195,0.003132263431325555
1672829354836980500,8.93498046875,0.002279473003000021,0.018492797389626503,0.006328053772449493
1672829354846926300,8.94492626953125,0.0033447365276515484,0.017427533864974976,0.003132263431325555
1672829354856872400,8.95487255859375,0.0012142094783484936,0.021688587963581085,0.0020669999066740274
1672829354866818300,8.964818359375,0.0012142094783484936,0.017427533864974976,0.004197526723146439
1672829354876764400,8.974764404296875,0.00014894595369696617,0.012101216241717339,-0.00006352714262902737
1672829354886710300,8.984710205078125,0.00014894595369696617,0.004644371569156647,-0.0011287906672805548
1672829354896656400,8.994656494140624,0.00014894595369696617,0.0014485809952020645,-0.004324581474065781
1672829354906602200,9.004602294921876,0.00014894595369696617,0.0003833174705505371,-0.0032593177165836096
1672829354916548400,9.01454833984375,-0.0019815810956060886,-0.0038777366280555725,-0.005389844998717308
1672829354926494200,9.024494140625,-0.0019815810956060886,-0.002812473103404045,-0.004324581474065781
1672829354936440300,9.0344404296875,0.0012142094783484936,-0.0017472095787525177,-0.002194054191932082
1672829354946386200,9.04438623046875,-0.0009163175709545612,0.004644371569156647,-0.0011287906672805548
1672829354956332300,9.054332275390625,0.0012142094783484936,0.005709635093808174,-0.0011287906672805548
1672829354966278400,9.0642783203125,0.002279473003000021,0.008905425667762756,0.0010017363820225
1672829354976224300,9.074224365234375,0.0012142094783484936,0.004644371569156647,-0.0032593177165836096
1672829354986170400,9.08417041015625,0.00014894595369696617,0.005709635093808174,-0.002194054191932082
1672829354996116200,9.0941162109375,0.00014894595369696617,0.007840162143111229,-0.00006352714262902737
1672829355006062300,9.104062255859375,-0.0009163175709545612,0.004644371569156647,-0.00006352714262902737
1672829355016008200,9.11400830078125,0.0012142094783484936,0.014231743291020393,0.004197526723146439
1672829355025954300,9.123954345703124,-0.0009163175709545612,0.01529700681567192,0.004197526723146439
1672829355035900200,9.133900146484375,0.002279473003000021,0.01529700681567192,0.004197526723146439
1672829355045846300,9.14384619140625,0.0012142094783484936,0.009970689192414284,0.004197526723146439
1672829355055792000,9.153792236328124,0.004410000052303076,0.014231743291020393,-0.0011287906672805548
1672829355065738200,9.16373828125,0.0033447365276515484,0.0067748986184597015,0.0020669999066740274
1672829355075684000,9.17368408203125,0.002279473003000021,0.012101216241717339,0.0020669999066740274
1672829355085630200,9.183630126953124,0.002279473003000021,0.014231743291020393,0.0010017363820225
1672829355095576000,9.193576171875,0.002279473003000021,0.013166479766368866,0.0010017363820225
1672829355105522200,9.203522216796875,0.0033447365276515484,0.011035952717065811,-0.00006352714262902737
1672829355115468000,9.213468017578125,0.002279473003000021,0.009970689192414284,-0.0011287906672805548
1672829355125414100,9.2234140625,0.002279473003000021,0.005709635093808174,-0.0011287906672805548
1672829355135360000,9.233360107421875,0.002279473003000021,0.008905425667762756,-0.00006352714262902737
1672829355145306000,9.24330615234375,0.0012142094783484936,0.004644371569156647,0.0010017363820225
1672829355155252000,9.253251953125,0.00014894595369696617,-0.0017472095787525177,-0.0011287906672805548
1672829355165198000,9.263197998046875,0.0012142094783484936,0.0014485809952020645,-0.0011287906672805548
1672829355175144000,9.27314404296875,0.0012142094783484936,0.002513844519853592,0.0020669999066740274
1672829355185090000,9.283090087890624,0.0012142094783484936,0.005709635093808174,-0.0011287906672805548
1672829355195036200,9.2930361328125,0.0012142094783484936,0.0035791080445051193,-0.00006352714262902737
1672829355204982000,9.30298193359375,0.005475263576954603,0.004644371569156647,-0.007520372048020363
1672829355214928100,9.31292822265625,0.002279473003000021,0.008905425667762756,-0.004324581474065781
1672829355224874000,9.3228740234375,0.002279473003000021,0.0035791080445051193,-0.00006352714262902737
1672829355234820000,9.332820068359375,0.0012142094783484936,0.007840162143111229,0.0020669999066740274
1672829355244766000,9.342765869140624,0.002279473003000021,0.005709635093808174,-0.00006352714262902737
1672829355254712000,9.352712158203126,0.002279473003000021,0.0014485809952020645,-0.00006352714262902737
1672829355264658000,9.362657958984375,0.00014894595369696617,0.0003833174705505371,-0.0011287906672805548
1672829355274604000,9.37260400390625,0.002279473003000021,-0.0017472095787525177,-0.00006352714262902737
1672829355284550000,9.3825498046875,0.0012142094783484936,-0.002812473103404045,-0.002194054191932082
1672829355294496000,9.39249609375,-0.0009163175709545612,-0.006008263677358627,-0.0011287906672805548
1672829355304441900,9.40244189453125,-0.0041121081449091434,-0.00920405425131321,-0.002194054191932082
1672829355314388000,9.412387939453126,-0.0019815810956060886,-0.0038777366280555725,-0.0032593177165836096
1672829355324333800,9.422333740234375,-0.0009163175709545612,-0.00920405425131321,-0.0032593177165836096
1672829355334280000,9.432280029296875,0.0012142094783484936,-0.008138790726661682,-0.0011287906672805548
1672829355344225800,9.442225830078126,0.002279473003000021,-0.0049430001527071,0.003132263431325555
1672829355354172000,9.452171875,0.0012142094783484936,-0.008138790726661682,0.003132263431325555
1672829355364117800,9.46211767578125,0.0012142094783484936,0.004644371569156647,0.004197526723146439
1672829355374063900,9.47206396484375,0.00014894595369696617,0.0067748986184597015,0.005262790247797966
1672829355384009700,9.482009765625,-0.0009163175709545612,0.014231743291020393,0.005262790247797966
1672829355393955800,9.491955810546875,-0.007307898718863726,0.02381911501288414,0.008458580821752548
1672829355403901700,9.501901611328124,-0.009438425302505493,0.01955806091427803,0.008458580821752548
1672829355413847800,9.511847900390626,-0.23633955419063568,0.0014485809952020645,0.01165437139570713
1672829355423794000,9.5217939453125,-0.4430006742477417,0.014231743291020393,0.010589107871055603
1672829355433739800,9.53173974609375,-0.5367438197135925,0.011035952717065811,0.01165437139570713
1672829355443686000,9.541685791015626,-0.5655059814453125,0.011035952717065811,0.01165437139570713
1672829355453631700,9.5516318359375,-0.5367438197135925,0.008905425667762756,0.008458580821752548
1672829355463577900,9.561577880859375,-0.4994596540927887,0.012101216241717339,0.009523844346404076
1672829355473523700,9.571523681640626,-0.49200281500816345,0.022753851488232613,0.0010017363820225
1672829355483469800,9.5814697265625,-0.4760238528251648,0.008905425667762756,0.008458580821752548
1672829355493415700,9.591415771484375,-0.5015901327133179,0.0035791080445051193,0.01165437139570713
1672829355503361800,9.60136181640625,-0.5079817175865173,-0.002812473103404045,-0.002194054191932082
1672829355513307600,9.6113076171875,-0.5623101592063904,0.007840162143111229,0.012719634920358658
1672829355523253800,9.621253662109375,-0.5750933289527893,-0.0049430001527071,0.0020669999066740274
1672829355533199600,9.63119970703125,-0.5687017440795898,-0.0038777366280555725,0.005262790247797966
1672829355543145700,9.641145751953125,-0.5505922436714172,0.008905425667762756,0.006328053772449493
1672829355553091600,9.651091552734375,-0.543135404586792,0.011035952717065811,0.004197526723146439
1672829355563037700,9.66103759765625,-0.5910722613334656,0.009970689192414284,0.0020669999066740274
1672829355572983600,9.670983642578125,-0.6784238815307617,0.005709635093808174,0.003132263431325555
1672829355582929700,9.6809296875,-0.798798680305481,0.004644371569156647,-0.002194054191932082
1672829355592875500,9.69087548828125,-0.9021292328834534,-0.01346510834991932,0.004197526723146439
1672829355602821600,9.700821533203126,-0.9948071837425232,0.008905425667762756,-0.00006352714262902737
1672829355612767500,9.710767578125,-1.05446195602417,-0.006008263677358627,-0.002194054191932082
1672829355622713600,9.720713623046874,-1.105594515800476,0.0003833174705505371,0.0020669999066740274
1672829355632659500,9.730659423828126,-1.1940114498138428,-0.007073527202010155,0.005262790247797966
1672829355642605600,9.74060546875,-1.2962766885757446,-0.0006819460541009903,-0.0032593177165836096
1672829355652551700,9.7505517578125,-1.4262388944625854,0.013166479766368866,-0.0032593177165836096
1672829355662497500,9.76049755859375,-1.5945504903793335,0.016362270340323448,-0.00006352714262902737
1672829355672443600,9.770443603515625,-1.7948200702667236,0.016362270340323448,0.010589107871055603
1672829355682389500,9.780389404296875,-1.9823064804077148,0.0067748986184597015,0.0020669999066740274
1672829355692335600,9.790335693359374,-2.1431612968444824,0.022753851488232613,0.018045952543616295
1672829355702281500,9.800281494140625,-2.2464919090270996,0.012101216241717339,0.005262790247797966
1672829355712227600,9.8102275390625,-2.2518181800842285,0.01955806091427803,0.0020669999066740274
1672829355722173400,9.82017333984375,-2.213468551635742,-0.040096692740917206,0.004197526723146439
1672829355732119600,9.83011962890625,-2.1879022121429443,0.030210694298148155,0.003132263431325555
1672829355742065400,9.8400654296875,-2.2124032974243164,0.0014485809952020645,0.003132263431325555
1672829355752011500,9.850011474609374,-2.255013942718506,0.013166479766368866,0.003132263431325555
1672829355761957400,9.859957275390625,-2.2997548580169678,0.0003833174705505371,0.005262790247797966
1672829355771903500,9.869903564453125,-2.3253211975097656,-0.0017472095787525177,0.010589107871055603
1672829355781849300,9.879849365234374,-2.305081367492676,-0.008138790726661682,0.009523844346404076
1672829355791795500,9.88979541015625,-2.25394868850708,0.020623324438929558,0.0020669999066740274
1672829355801741300,9.8997412109375,-2.2113380432128906,-0.018791425973176956,0.01165437139570713
1672829355811687400,9.9096875,-2.2230560779571533,0.007840162143111229,-0.007520372048020363
1672829355821633300,9.91963330078125,-2.2571444511413574,-0.0017472095787525177,0.0020669999066740274
1672829355831579400,9.929579345703125,-2.309342384338379,-0.0006819460541009903,0.008458580821752548
1672829355841525200,9.939525146484375,-2.3466265201568604,0.0014485809952020645,0.009523844346404076
1672829355851471400,9.949471435546876,-2.328517198562622,-0.018791425973176956,0.006328053772449493
1672829355861417500,9.95941748046875,-2.259274959564209,-0.0006819460541009903,0.006328053772449493
1672829355871363600,9.969363525390625,-2.1527485847473145,-0.0049430001527071,0.013784898445010185
1672829355881309700,9.979309814453124,-2.060070753097534,0.008905425667762756,0.007393317297101021
1672829355891255800,9.989255859375,-2.0185253620147705,0.007840162143111229,0.005262790247797966
1672829355901202200,9.9992021484375,-1.9918937683105469,-0.007073527202010155,0.0010017363820225
1672829355911148500,10.0091484375,-1.9918937683105469,0.012101216241717339,-0.004324581474065781
1672829355921094100,10.01909423828125,-2.040895938873291,0.002513844519853592,0.003132263431325555
1672829355931039700,10.029039794921875,-2.1175949573516846,0.016362270340323448,0.007393317297101021
1672829355940985600,10.038985595703124,-2.195359230041504,-0.0006819460541009903,0.006328053772449493
1672829355950931500,10.048931396484376,-2.2081422805786133,0.0035791080445051193,0.009523844346404076
1672829355960877300,10.058877197265625,-2.1527485847473145,0.0035791080445051193,0.006328053772449493
1672829355970823200,10.0688232421875,-2.0632665157318115,0.014231743291020393,-0.00006352714262902737
1672829355980769300,10.078769287109376,-1.9759148359298706,-0.002812473103404045,0.009523844346404076
1672829355990715400,10.08871533203125,-1.882171630859375,0.018492797389626503,0.008458580821752548
1672829356000661500,10.09866162109375,-1.773514747619629,0.012101216241717339,0.0010017363820225
1672829356010609400,10.108609375,-1.6957505941390991,0.002513844519853592,-0.00006352714262902737
1672829356020561400,10.1185615234375,-1.6861631870269775,0.011035952717065811,-0.00006352714262902737
1672829356030518500,10.1285185546875,-1.7404916286468506,0.002513844519853592,0.01165437139570713
1672829356040482600,10.138482666015625,-1.815060019493103,0.004644371569156647,0.004197526723146439
1672829356050454000,10.1484541015625,-1.8406263589859009,-0.0017472095787525177,0.010589107871055603
1672829356060430800,10.158430908203124,-1.7820369005203247,0.01955806091427803,0.004197526723146439
1672829356070284000,10.168283935546874,-1.6488789319992065,0.007840162143111229,0.004197526723146439
1672829356080151000,10.178151123046876,-1.5050684213638306,0.014231743291020393,0.007393317297101021
1672829356090024400,10.1880244140625,-1.4219778776168823,0.018492797389626503,0.009523844346404076
1672829356099906800,10.19790673828125,-1.4304999113082886,0.005709635093808174,0.0020669999066740274
1672829356109800400,10.207800537109375,-1.500807285308838,0.022753851488232613,0.010589107871055603
1672829356119706600,10.21770654296875,-1.5838978290557861,0.008905425667762756,0.0020669999066740274
1672829356129627000,10.227626953125,-1.6360957622528076,0.01529700681567192,0.003132263431325555
1672829356139561200,10.237561279296875,-1.6552705764770508,0.018492797389626503,0.008458580821752548
1672829356149510000,10.247510009765625,-1.6531400680541992,0.0067748986184597015,-0.00006352714262902737
1672829356159472000,10.25747216796875,-1.646748423576355,-0.0017472095787525177,0.0020669999066740274
1672829356169446700,10.26744677734375,-1.641422152519226,0.009970689192414284,0.005262790247797966
1672829356179432000,10.277431884765624,-1.6307694911956787,0.013166479766368866,0.007393317297101021
1672829356189426000,10.287426025390625,-1.6382262706756592,0.012101216241717339,0.01165437139570713
1672829356199426300,10.29742626953125,-1.6776410341262817,0.014231743291020393,0.005262790247797966
1672829356209430800,10.3074306640625,-1.71812105178833,-0.0038777366280555725,0.008458580821752548
1672829356219436800,10.317436767578124,-1.7490137815475464,0.014231743291020393,0.010589107871055603
1672829356229419800,10.327419677734374,-1.798015832901001,0.005709635093808174,0.007393317297101021
1672829356239366000,10.337365966796876,-1.8747148513793945,0.020623324438929558,0.01165437139570713
1672829356249311700,10.347311767578125,-1.9119991064071655,0.0067748986184597015,0.0020669999066740274
1672829356259257900,10.3572578125,-1.8906937837600708,0.002513844519853592,0.010589107871055603
1672829356269203700,10.36720361328125,-1.865127444267273,-0.007073527202010155,0.014850161969661713
1672829356279149800,10.37714990234375,-1.8438222408294678,0.008905425667762756,0.008458580821752548
1672829356289095700,10.387095703125,-1.8044074773788452,-0.006008263677358627,0.014850161969661713
1672829356299041800,10.397041748046876,-1.7330347299575806,0.0003833174705505371,0.007393317297101021
1672829356308987600,10.406987548828125,-1.6893589496612549,0.0003833174705505371,0.005262790247797966
1672829356318933800,10.416933837890625,-1.6872284412384033,-0.007073527202010155,0.009523844346404076
1672829356328879600,10.426879638671876,-1.7000116109848022,0.011035952717065811,0.009523844346404076
1672829356338825700,10.43682568359375,-1.7127947807312012,-0.014530371874570847,0.008458580821752548
1672829356348771600,10.446771484375,-1.6957505941390991,0.0003833174705505371,0.01165437139570713
1672829356358717700,10.4567177734375,-1.6435526609420776,-0.007073527202010155,0.0020669999066740274
1672829356368663600,10.46666357421875,-1.5231778621673584,-0.0017472095787525177,0.009523844346404076
1672829356378609700,10.476609619140625,-1.394281029701233,-0.011334581300616264,0.010589107871055603
1672829356388555500,10.486555419921874,-1.264318823814392,0.007840162143111229,0.007393317297101021
1672829356398501600,10.496501708984376,-1.1066597700119019,-0.014530371874570847,0.012719634920358658
1672829356408447500,10.506447509765625,-0.9138471484184265,0.011035952717065811,0.003132263431325555
1672829356418393600,10.5163935546875,-0.7742975950241089,-0.008138790726661682,0.004197526723146439
1672829356428339700,10.526339599609376,-0.6549881100654602,0.007840162143111229,0.0010017363820225
1672829356438285600,10.53628564453125,-0.5537880659103394,-0.010269317775964737,-0.00006352714262902737
1672829356448231700,10.546231689453125,-0.45045751333236694,-0.0038777366280555725,-0.00006352714262902737
1672829356458177500,10.556177490234376,-0.37482380867004395,-0.0038777366280555725,-0.0032593177165836096
1672829356468123600,10.56612353515625,-0.3258216977119446,0.002513844519853592,-0.002194054191932082
1672829356478069500,10.576069580078125,-0.2917332649230957,0.0014485809952020645,-0.00006352714262902737
1672829356488015600,10.586015625,-0.2533837854862213,0.005709635093808174,-0.00006352714262902737
1672829356497961500,10.59596142578125,-0.19585955142974854,0.0003833174705505371,-0.00006352714262902737
1672829356507907600,10.605907470703125,-0.11489951610565186,0.009970689192414284,-0.004324581474065781
1672829356517853400,10.615853515625,-0.020091060549020767,0.0035791080445051193,-0.004324581474065781
1672829356527799600,10.625799560546875,0.04595527797937393,0.004644371569156647,-0.004324581474065781
1672829356537745400,10.635745361328125,0.05021633207798004,-0.0049430001527071,-0.004324581474065781
1672829356547691500,10.64569140625,0.0012142094783484936,-0.010269317775964737,-0.004324581474065781
1672829356557637400,10.655637451171875,0.002279473003000021,0.0035791080445051193,-0.0032593177165836096
1672829356567583500,10.66558349609375,0.00014894595369696617,0.0014485809952020645,-0.0032593177165836096
1672829356577529300,10.675529296875,0.0012142094783484936,0.0003833174705505371,-0.00006352714262902737
1672829356587475500,10.685475341796876,0.0012142094783484936,0.004644371569156647,-0.00006352714262902737
1672829356597421300,10.69542138671875,0.002279473003000021,0.004644371569156647,-0.00006352714262902737
1672829356607367400,10.705367431640624,0.002279473003000021,0.004644371569156647,-0.00006352714262902737
1672829356617313300,10.715313232421876,0.0033447365276515484,0.005709635093808174,-0.00006352714262902737
1672829356627259400,10.72525927734375,0.0012142094783484936,0.004644371569156647,-0.0011287906672805548
1672829356637205200,10.735205322265625,0.00014894595369696617,0.0003833174705505371,-0.002194054191932082
1672829356647151400,10.7451513671875,-0.003046844620257616,0.0067748986184597015,-0.005389844998717308
1672829356657097200,10.75509716796875,-0.011568952351808548,-0.011334581300616264,-0.03202143311500549
1672829356667043300,10.765043212890625,0.0012142094783484936,0.007840162143111229,-0.002194054191932082
1672829356676989400,10.774989501953126,0.00014894595369696617,0.008905425667762756,0.0010017363820225
1672829356686935300,10.784935302734375,0.002279473003000021,0.018492797389626503,-0.005389844998717308
1672829356696881400,10.79488134765625,0.0012142094783484936,0.012101216241717339,-0.002194054191932082
1672829356706827300,10.8048271484375,0.0012142094783484936,0.0014485809952020645,-0.002194054191932082
1672829356716773400,10.8147734375,0.002279473003000021,0.011035952717065811,-0.002194054191932082
1672829356726719200,10.82471923828125,-0.005177371669560671,0.024884378537535667,0.010589107871055603
1672829356736665300,10.834665283203124,-0.0009163175709545612,0.014231743291020393,-0.0011287906672805548
1672829356746611200,10.844611083984375,0.0012142094783484936,-0.0006819460541009903,-0.0011287906672805548
1672829356756557300,10.854557373046875,0.0012142094783484936,0.009970689192414284,-0.00006352714262902737
1672829356766503200,10.864503173828124,0.002279473003000021,0.0014485809952020645,0.0020669999066740274
1672829356776449300,10.87444921875,0.002279473003000021,0.0035791080445051193,0.0020669999066740274
1672829356786395100,10.88439501953125,0.002279473003000021,0.0014485809952020645,0.0010017363820225
1672829356796341200,10.89434130859375,0.0012142094783484936,0.002513844519853592,-0.00006352714262902737
1672829356806287000,10.904287109375,0.00014894595369696617,0.0003833174705505371,-0.00006352714262902737
1672829356816233200,10.914233154296875,0.002279473003000021,0.0014485809952020645,-0.00006352714262902737
1672829356826179000,10.924178955078125,0.002279473003000021,0.0035791080445051193,0.0010017363820225
1672829356836125200,10.934125244140626,0.002279473003000021,0.004644371569156647,-0.0011287906672805548
1672829356846071000,10.944071044921875,0.0012142094783484936,0.002513844519853592,0.0010017363820225
1672829356856017200,10.95401708984375,0.0012142094783484936,0.0035791080445051193,-0.00006352714262902737
1672829356865963000,10.963962890625,0.0012142094783484936,0.004644371569156647,0.0010017363820225
1672829356875909000,10.9739091796875,0.002279473003000021,0.002513844519853592,-0.00006352714262902737
1672829356885855200,10.983855224609375,0.0012142094783484936,0.002513844519853592,0.0010017363820225
1672829356895801000,10.993801025390624,0.002279473003000021,0.002513844519853592,-0.00006352714262902737
1672829356905747200,11.003747314453125,0.0033447365276515484,0.0014485809952020645,-0.00006352714262902737
1672829356915693000,11.013693115234375,0.0033447365276515484,0.0035791080445051193,-0.00006352714262902737
1672829356925639200,11.02363916015625,0.002279473003000021,0.0035791080445051193,0.0010017363820225
1672829356935585000,11.0335849609375,0.00014894595369696617,0.002513844519853592,0.0010017363820225
1672829356945531100,11.04353125,0.0012142094783484936,0.0035791080445051193,-0.00006352714262902737
1672829356955477000,11.05347705078125,0.0033447365276515484,0.002513844519853592,-0.00006352714262902737
1672829356965423000,11.063423095703126,0.002279473003000021,0.0035791080445051193,-0.00006352714262902737
1672829356975369000,11.073368896484375,0.002279473003000021,0.0035791080445051193,-0.00006352714262902737
1672829356985315000,11.083315185546875,0.0012142094783484936,0.0035791080445051193,0.0010017363820225
1672829356995261000,11.093260986328126,0.0012142094783484936,0.0035791080445051193,-0.00006352714262902737
1672829357005207000,11.10320703125,0.002279473003000021,0.0035791080445051193,0.0010017363820225
1672829357015153000,11.11315283203125,0.0033447365276515484,0.002513844519853592,0.0010017363820225
1672829357025099000,11.12309912109375,0.0012142094783484936,0.002513844519853592,0.0010017363820225
1672829357035044900,11.133044921875,0.0012142094783484936,0.002513844519853592,0.0010017363820225
1672829357044991000,11.142990966796875,0.0012142094783484936,0.002513844519853592,0.0010017363820225
1672829357054936800,11.152936767578124,0.002279473003000021,0.0035791080445051193,0.0010017363820225
1672829357064883000,11.162883056640625,0.0012142094783484936,0.0014485809952020645,-0.00006352714262902737
1672829357074828800,11.172828857421875,0.0012142094783484936,0.0035791080445051193,-0.00006352714262902737
1672829357084775000,11.18277490234375,0.00014894595369696617,0.002513844519853592,-0.0011287906672805548
1672829357094720800,11.192720703125,0.002279473003000021,0.002513844519853592,-0.0011287906672805548
1672829357104667000,11.2026669921875,0.0012142094783484936,0.002513844519853592,0.0010017363820225
1672829357114613000,11.212613037109374,0.00014894595369696617,0.002513844519853592,0.0010017363820225
1672829357124558800,11.222558837890626,0.0012142094783484936,0.002513844519853592,-0.0011287906672805548
1672829357134505000,11.2325048828125,0.002279473003000021,0.0035791080445051193,-0.00006352714262902737
1672829357144450800,11.242450927734374,0.0012142094783484936,0.0035791080445051193,-0.00006352714262902737
1672829357154397000,11.25239697265625,0.0012142094783484936,0.002513844519853592,-0.00006352714262902737
1672829357164342800,11.2623427734375,0.0012142094783484936,0.002513844519853592,0.0010017363820225
1672829357174289000,11.272288818359375,0.00014894595369696617,0.002513844519853592,-0.00006352714262902737
1672829357184234800,11.28223486328125,0.002279473003000021,0.002513844519853592,0.0010017363820225
1672829357194180900,11.292180908203125,0.002279473003000021,0.0035791080445051193,-0.00006352714262902737
1672829357204126700,11.302126708984375,0.0012142094783484936,0.0035791080445051193,0.0010017363820225
1672829357214072800,11.31207275390625,0.0012142094783484936,0.0014485809952020645,0.0020669999066740274
1672829357224018700,11.322018798828125,0.0012142094783484936,0.004644371569156647,0.0010017363820225
1672829357233964800,11.33196484375,0.0012142094783484936,0.0035791080445051193,0.0010017363820225
1672829357243910700,11.34191064453125,0.0012142094783484936,0.0014485809952020645,0.0010017363820225
1672829357253856800,11.351856689453125,0.0012142094783484936,0.002513844519853592,-0.0011287906672805548
1672829357263802600,11.361802734375,0.00014894595369696617,0.0035791080445051193,0.0010017363820225
1672829357273748700,11.371748779296874,0.0012142094783484936,0.0035791080445051193,0.0010017363820225
1672829357283694600,11.381694580078126,0.0033447365276515484,0.0035791080445051193,0.0010017363820225
1672829357293640700,11.391640625,0.0012142094783484936,0.002513844519853592,-0.00006352714262902737
1672829357303586600,11.401586669921874,0.002279473003000021,0.0014485809952020645,0.0010017363820225
1672829357313532700,11.41153271484375,0.0033447365276515484,0.0035791080445051193,0.0010017363820225
1672829357323478500,11.421478515625,0.00014894595369696617,0.002513844519853592,-0.0011287906672805548
1672829357333424600,11.431424560546875,0.0012142094783484936,0.0014485809952020645,0.0010017363820225
1672829357343370800,11.441370849609376,0.00014894595369696617,0.0014485809952020645,0.0010017363820225
1672829357353316600,11.451316650390625,0.0012142094783484936,0.0035791080445051193,-0.00006352714262902737
1672829357363262700,11.4612626953125,0.0012142094783484936,0.004644371569156647,0.0010017363820225
1672829357373208600,11.47120849609375,0.0012142094783484936,0.004644371569156647,0.0020669999066740274
1672829357383154700,11.48115478515625,0.002279473003000021,0.002513844519853592,0.0020669999066740274
1672829357393100500,11.4911005859375,0.002279473003000021,0.002513844519853592,0.0010017363820225
1672829357403046700,11.501046630859374,0.002279473003000021,0.0035791080445051193,-0.00006352714262902737
1672829357412992500,11.510992431640625,0.0012142094783484936,0.0014485809952020645,0.0010017363820225
1672829357422938600,11.520938720703125,0.00014894595369696617,0.002513844519853592,0.0010017363820225
1672829357432884500,11.530884521484374,0.0012142094783484936,0.0035791080445051193,-0.00006352714262902737
1672829357442830600,11.54083056640625,0.00014894595369696617,0.0035791080445051193,0.0010017363820225
1672829357452776400,11.5507763671875,0.0012142094783484936,0.0035791080445051193,-0.00006352714262902737
1672829357462722600,11.56072265625,0.002279473003000021,0.002513844519853592,-0.00006352714262902737
1672829357472668400,11.57066845703125,0.002279473003000021,0.0035791080445051193,-0.00006352714262902737
1672829357482614500,11.580614501953125,0.00014894595369696617,0.0035791080445051193,0.0020669999066740274
1672829357492560400,11.590560302734374,0.0012142094783484936,0.0035791080445051193,0.0010017363820225
1672829357502506500,11.600506591796876,0.0012142094783484936,0.0035791080445051193,-0.00006352714262902737
1672829357512452400,11.610452392578125,0.0012142094783484936,0.002513844519853592,-0.00006352714262902737
1672829357522398500,11.6203984375,0.0012142094783484936,0.002513844519853592,0.0020669999066740274
1672829357532344300,11.63034423828125,0.002279473003000021,0.0035791080445051193,-0.00006352714262902737
1672829357542290400,11.64029052734375,0.002279473003000021,0.002513844519853592,-0.00006352714262902737
1672829357552236300,11.650236328125,0.002279473003000021,0.0014485809952020645,-0.00006352714262902737
1672829357562182400,11.660182373046876,0.0012142094783484936,0.0014485809952020645,-0.00006352714262902737
1672829357572128500,11.67012841796875,0.0012142094783484936,0.004644371569156647,-0.004324581474065781
1672829357582074400,11.680074462890625,0.0012142094783484936,0.0014485809952020645,-0.004324581474065781
1672829357592020500,11.6900205078125,0.002279473003000021,0.005709635093808174,-0.002194054191932082
1672829357601966300,11.69996630859375,0.0033447365276515484,0.0014485809952020645,0.0010017363820225
1672829357611912400,11.709912353515625,-0.0009163175709545612,0.011035952717065811,-0.02882564254105091
1672829357621858300,11.7198583984375,0.004410000052303076,0.05577702075242996,-0.013911953195929527
1672829357631804400,11.729804443359376,0.00014894595369696617,-0.02092195302248001,0.005262790247797966
1672829357641750300,11.739750244140625,0.00014894595369696617,0.0067748986184597015,-0.0032593177165836096
1672829357651696400,11.7496962890625,0.00014894595369696617,-0.011334581300616264,0.003132263431325555
1672829357661642200,11.759642333984376,0.0012142094783484936,-0.00920405425131321,0.0020669999066740274
1672829357671588400,11.76958837890625,0.0012142094783484936,-0.00920405425131321,0.0010017363820225
1672829357681534200,11.7795341796875,0.002279473003000021,-0.00920405425131321,-0.0011287906672805548
1672829357691480300,11.789480224609376,0.0012142094783484936,0.0014485809952020645,-0.0032593177165836096
1672829357701426200,11.79942626953125,0.00014894595369696617,0.013166479766368866,-0.0064551085233688354
1672829357711372300,11.809372314453125,0.0012142094783484936,0.009970689192414284,-0.005389844998717308
1672829357721318400,11.819318359375,0.002279473003000021,0.004644371569156647,-0.005389844998717308
1672829357731264500,11.829264404296875,0.002279473003000021,0.012101216241717339,-0.0064551085233688354
1672829357741210600,11.839210693359375,0.0033447365276515484,0.008905425667762756,-0.0011287906672805548
1672829357751156500,11.849156494140624,0.0012142094783484936,0.004644371569156647,-0.0011287906672805548
1672829357761102000,11.85910205078125,0.0012142094783484936,0.018492797389626503,-0.004324581474065781
1672829357771048000,11.8690478515625,-0.0041121081449091434,0.0067748986184597015,0.0020669999066740274
1672829357780993800,11.878993896484374,0.0012142094783484936,0.0035791080445051193,-0.005389844998717308
1672829357790939400,11.888939453125,-0.0009163175709545612,0.022753851488232613,0.006328053772449493
1672829357800885200,11.89888525390625,0.0033447365276515484,0.03127595782279968,-0.016042480245232582
1672829357810831000,11.9088310546875,0.0033447365276515484,-0.006008263677358627,-0.002194054191932082
1672829357820777000,11.91877685546875,0.002279473003000021,-0.0049430001527071,-0.0032593177165836096
