time,seconds_elapsed,z,y,x
1672829346036322000,0.134322021484375,-214.43399047851562,-24.726022720336914,14.203272819519043
1672829346046322200,0.144322265625,-215.07672119140625,-26.322832107543945,15.253931999206543
1672829346056322000,0.154322021484375,-216.02838134765625,-26.494848251342773,16.11766815185547
1672829346066322200,0.164322265625,-213.22877502441406,-27.442604064941406,16.010257720947266
1672829346076322000,0.174322021484375,-214.02391052246094,-25.874168395996094,16.678958892822266
1672829346086322200,0.184322265625,-212.64834594726562,-27.15650177001953,17.725900650024414
1672829346096322000,0.194322021484375,-211.68959045410156,-27.29559898376465,16.584375381469727
1672829346106322200,0.204322265625,-212.76168823242188,-25.702388763427734,15.816102981567383
1672829346116322000,0.214322021484375,-213.07667541503906,-27.603185653686523,16.15902328491211
1672829346126322200,0.224322265625,-210.1421356201172,-28.40777015686035,16.90899658203125
1672829346136322000,0.234322021484375,-209.9927215576172,-26.356203079223633,16.991748809814453
1672829346146322200,0.244322265625,-209.49844360351562,-27.601016998291016,15.88191032409668
1672829346156322000,0.254322021484375,-210.77450561523438,-27.466590881347656,17.30977439880371
1672829346166322200,0.264322265625,-207.03427124023438,-27.459632873535156,16.74588394165039
1672829346176322000,0.274322021484375,-207.48236083984375,-28.237060546875,16.050090789794922
1672829346186322200,0.284322265625,-207.77708435058594,-27.43450164794922,15.30759048461914
1672829346196322000,0.294322021484375,-206.71324157714844,-27.768531799316406,16.325363159179688
1672829346206322200,0.304322265625,-207.01612854003906,-28.553442001342773,16.060840606689453
1672829346216322000,0.314322021484375,-204.89016723632812,-27.79940414428711,18.053951263427734
1672829346226322200,0.324322265625,-207.33082580566406,-27.923612594604492,16.18471336364746
1672829346236322000,0.334322021484375,-206.64080810546875,-28.778057098388672,19.944334030151367
1672829346246322200,0.344322265625,-205.02549743652344,-27.626550674438477,17.18714141845703
1672829346256322000,0.354322021484375,-207.05645751953125,-28.5828857421875,17.784156799316406
1672829346266322200,0.364322265625,-205.079345703125,-30.354448318481445,19.70865821838379
1672829346276322000,0.374322021484375,-206.6109619140625,-28.439950942993164,18.642417907714844
1672829346286322200,0.384322265625,-207.08534240722656,-29.711042404174805,19.109649658203125
1672829346296322000,0.394322021484375,-205.50985717773438,-31.75165367126465,18.313678741455078
1672829346306322200,0.404322265625,-206.4403076171875,-30.010364532470703,18.11556625366211
1672829346316322000,0.414322021484375,-207.08035278320312,-28.284038543701172,18.779993057250977
1672829346326322200,0.424322265625,-205.0453643798828,-30.645933151245117,18.281991958618164
1672829346336322000,0.434322021484375,-206.008056640625,-30.03525733947754,19.552980422973633
1672829346346322200,0.444322265625,-206.1433868408203,-29.86240577697754,18.68617057800293
1672829346356322000,0.454322021484375,-207.67979431152344,-29.532926559448242,17.95429801940918
1672829346366322200,0.464322265625,-206.11929321289062,-30.319263458251953,17.695049285888672
1672829346376322000,0.474322021484375,-206.14376831054688,-29.546384811401367,18.676740646362305
1672829346386322200,0.484322265625,-204.91041564941406,-30.502761840820312,19.139375686645508
1672829346396322000,0.494322021484375,-207.36154174804688,-30.31831169128418,17.6915340423584
1672829346406322200,0.504322265625,-206.59242248535156,-29.849781036376953,17.96680450439453
1672829346416322000,0.514322021484375,-207.810302734375,-27.775060653686523,16.753116607666016
1672829346426322200,0.524322265625,-206.58743286132812,-28.422775268554688,17.63715171813965
1672829346436322000,0.534322021484375,-205.51390075683594,-28.43342399597168,18.214664459228516
1672829346446322200,0.544322265625,-206.89666748046875,-29.528614044189453,17.66927719116211
1672829346456322000,0.554322021484375,-206.58743286132812,-28.422775268554688,17.63715171813965
1672829346466322200,0.564322265625,-207.07363891601562,-28.279130935668945,18.492774963378906
1672829346476322000,0.574322021484375,-205.8231201171875,-29.539262771606445,18.246789932250977
1672829346486322200,0.584322265625,-205.97483825683594,-29.694700241088867,18.107454299926758
1672829346496322000,0.594322021484375,-205.5067901611328,-28.744539260864258,17.93687629699707
1672829346506322200,0.604322265625,-206.59915161132812,-29.85468864440918,18.2540225982666
1672829346516322000,0.614322021484375,-204.75428771972656,-28.446287155151367,18.93490982055664
1672829346526322200,0.624322265625,-206.9024200439453,-30.323575973510742,17.980070114135742
1672829346536322000,0.634322021484375,-207.81375122070312,-30.46615219116211,17.12049102783203
1672829346546322200,0.644322265625,-205.9853057861328,-29.38603973388672,18.528854370117188
1672829346556322000,0.654322021484375,-206.4248504638672,-28.89202117919922,17.364513397216797
1672829346566322200,0.664322265625,-206.91921997070312,-30.335844039916992,18.698118209838867
1672829346576322000,0.674322021484375,-206.45748901367188,-29.70661163330078,18.82418441772461
1672829346586322200,0.684322265625,-206.92210388183594,-27.965681076049805,18.62739372253418
1672829346596322000,0.694322021484375,-205.67474365234375,-29.38627815246582,18.529733657836914
1672829346606322200,0.704322265625,-204.86473083496094,-29.362337112426758,17.095834732055664
1672829346616322000,0.714322021484375,-206.89666748046875,-29.528614044189453,17.66927719116211
1672829346626322200,0.724322265625,-205.9906768798828,-30.49702262878418,18.849077224731445
1672829346636322000,0.734322021484375,-205.70420837402344,-30.040401458740234,19.841081619262695
1672829346646322200,0.744322265625,-207.67941284179688,-29.848947525024414,17.963727951049805
1672829346656322000,0.754322021484375,-205.9853057861328,-29.38603973388672,18.528854370117188
1672829346666322200,0.764322265625,-205.04574584960938,-30.329912185668945,18.27256202697754
1672829346676322000,0.774322021484375,-205.0074462890625,-31.408998489379883,16.725860595703125
1672829346686322200,0.784322265625,-205.8418426513672,-27.97142219543457,18.917688369750977
1672829346696322000,0.794322021484375,-205.056396484375,-29.863239288330078,18.689247131347656
1672829346706322200,0.804322265625,-206.92286682128906,-27.333637237548828,18.60853385925293
1672829346716322000,0.814322021484375,-207.9893798828125,-30.322742462158203,17.976993560791016
1672829346726322200,0.824322265625,-205.0625457763672,-30.342180252075195,18.990610122680664
1672829346736322000,0.834322021484375,-206.14280700683594,-30.33643913269043,18.700315475463867
1672829346746322200,0.844322265625,-206.8970489501953,-29.21259117126465,17.659847259521484
1672829346756322000,0.854322021484375,-207.36923217773438,-29.533164978027344,17.955177307128906
1672829346766322200,0.864322265625,-207.0718994140625,-29.701229095458984,18.53520965576172
1672829346776322000,0.874322021484375,-206.45787048339844,-29.39059066772461,18.814754486083984
1672829346786322200,0.884322265625,-205.08663940429688,-29.88532257080078,19.981733322143555
1672829346796322000,0.894322021484375,-205.04708862304688,-29.223834991455078,18.23955726623535
1672829346806322200,0.904322265625,-205.05775451660156,-28.757164001464844,18.65624237060547
1672829346816322000,0.914322021484375,-205.8332061767578,-29.54662322998047,18.67761993408203
1672829346826322200,0.924322265625,-204.86703491210938,-27.466205596923828,17.039255142211914
1672829346836322000,0.934322021484375,-204.90274047851562,-31.28791046142578,18.875728607177734
1672829346846322200,0.944322265625,-206.14569091796875,-27.966276168823242,18.62959098815918
1672829346856322000,0.954322021484375,-204.91233825683594,-28.922653198242188,19.092226028442383
1672829346866322200,0.964322265625,-204.14505004882812,-29.720664978027344,19.548824310302734
1672829346876322000,0.974322021484375,-204.445068359375,-27.3404483795166,18.902782440185547
1672829346886322200,0.984322265625,-208.64633178710938,-31.29732322692871,19.58323097229004
1672829346896322000,0.994322021484375,-204.57635498046875,-30.48582649230957,18.134984970092773
1672829346906322200,1.004322265625,-206.76133728027344,-29.701465606689453,18.536087036132812
1672829346916322000,1.014322021484375,-205.6824188232422,-28.601131439208984,18.793376922607422
1672829346926322200,1.024322265625,-205.95362854003906,-27.781394958496094,17.045608520507812
1672829346936322000,1.034322021484375,-206.88658142089844,-29.52125358581543,17.238447189331055
1672829346946322200,1.044322265625,-205.85000610351562,-29.55889129638672,19.395668029785156
1672829346956322000,1.054322021484375,-205.9845428466797,-30.018081665039062,18.547714233398438
1672829346966322200,1.064322265625,-206.4175567626953,-29.361146926879883,17.091440200805664
1672829346976322000,1.074322021484375,-205.3718719482422,-28.601369857788086,18.79425621032715
1672829346986322200,1.084322265625,-205.8177490234375,-28.42827796936035,17.92656707763672
1672829346996322000,1.094322021484375,-204.5877685546875,-29.38711166381836,18.53281021118164
1672829347006322200,1.104322265625,-205.0399932861328,-29.534950256347656,17.961769104003906
1672829347016322000,1.114322021484375,-204.7515869140625,-30.65843963623047,19.000919342041016
1672829347026322200,1.124322265625,-205.39576721191406,-28.302520751953125,19.790096282958984
1672829347036322000,1.134322021484375,-205.04708862304688,-29.223834991455078,18.23955726623535
1672829347046322200,1.144322265625,-204.7227020263672,-29.53028106689453,17.675430297851562
1672829347056322000,1.154322021484375,-206.14414978027344,-29.230361938476562,18.66731071472168
1672829347066322200,1.164322265625,-205.37225341796875,-28.28534698486328,18.784826278686523
1672829347076322000,1.174322021484375,-205.0399932861328,-29.534950256347656,17.961769104003906
1672829347086322200,1.184322265625,-205.52359008789062,-28.756807327270508,18.654924392700195
1672829347096322000,1.194322021484375,-207.52902221679688,-28.587434768676758,18.07005500793457
1672829347106322200,1.204322265625,-204.7082061767578,-27.62188148498535,16.900802612304688
1672829347116322000,1.214322021484375,-203.4523162841797,-27.771032333374023,16.334592819213867
1672829347126322200,1.224322265625,-204.42115783691406,-27.639293670654297,17.906946182250977
1672829347136322000,1.234322021484375,-204.88211059570312,-28.900571823120117,17.79973793029785
1672829347146322200,1.244322265625,-205.50717163085938,-28.428516387939453,17.927446365356445
1672829347156322000,1.254322021484375,-204.5786590576172,-28.589696884155273,18.078405380249023
1672829347166322200,1.264322265625,-205.95228576660156,-28.887470245361328,17.07861328125
1672829347176322000,1.274322021484375,-205.8418426513672,-27.97142219543457,18.917688369750977
1672829347186322200,1.284322265625,-205.81063842773438,-28.73939323425293,17.648778915405273
1672829347196322000,1.294322021484375,-204.9136962890625,-27.816577911376953,19.059221267700195
1672829347206322200,1.304322265625,-205.97523498535156,-29.378679275512695,18.098024368286133
1672829347216322000,1.314322021484375,-206.4135284423828,-27.144086837768555,16.738210678100586
1672829347226322200,1.324322265625,-205.3523712158203,-30.801252365112305,18.1422176361084
1672829347236322000,1.334322021484375,-205.52493286132812,-27.65073013305664,18.621919631958008
1672829347246322200,1.344322265625,-205.81678771972656,-29.218332290649414,17.95014190673828
1672829347256322000,1.354322021484375,-205.50852966308594,-27.32244110107422,17.894441604614258
1672829347266322200,1.364322265625,-205.8123779296875,-27.31729507446289,17.60634422302246
1672829347276322000,1.374322021484375,-204.70724487304688,-28.411935806274414,16.92437744140625
1672829347286322200,1.384322265625,-206.13101196289062,-26.21588897705078,17.859678268432617
1672829347296322000,1.394322021484375,-207.048095703125,-27.153427124023438,17.31089210510254
1672829347306322200,1.404322265625,-206.55076599121094,-25.39112663269043,15.824251174926758
1672829347316322000,1.414322021484375,-207.66261291503906,-24.3013916015625,16.793437957763672
1672829347326322200,1.424322265625,-208.12490844726562,-24.456592559814453,16.653223037719727
1672829347336322000,1.434322021484375,-209.05784606933594,-26.19645118713379,16.84606170654297
1672829347346322200,1.444322265625,-210.6139373779297,-23.509075164794922,16.761512756347656
1672829347356322000,1.454322021484375,-213.25460815429688,-25.563650131225586,16.958946228027344
1672829347366322200,1.464322265625,-214.6512908935547,-23.5059814453125,16.75008773803711
1672829347376322000,1.474322021484375,-215.6002655029297,-25.890153884887695,17.679832458496094
1672829347386322200,1.484322265625,-215.7594757080078,-25.418453216552734,17.808856964111328
1672829347396322000,1.494322021484375,-215.13287353515625,-27.154598236083984,17.718870162963867
1672829347406322200,1.504322265625,-216.7017364501953,-27.797719955444336,18.451383590698242
1672829347416322000,1.514322021484375,-216.84510803222656,-26.523696899414062,17.83878517150879
1672829347426322200,1.524322265625,-217.00030517578125,-29.370229721069336,18.066823959350586
1672829347436322000,1.534322021484375,-215.3376007080078,-27.98133659362793,19.896148681640625
1672829347446322200,1.544322265625,-216.84817504882812,-29.530811309814453,18.215587615966797
1672829347456322000,1.554322021484375,-214.99984741210938,-30.96660614013672,18.98134422302246
1672829347466322200,1.564322265625,-213.76345825195312,-28.915868759155273,19.067176818847656
1672829347476322000,1.574322021484375,-215.3352813720703,-29.877466201782227,19.952728271484375
1672829347486322200,1.584322265625,-213.77218627929688,-30.029306411743164,19.531007766723633
1672829347496322000,1.594322021484375,-213.93141174316406,-29.55760955810547,19.6600341796875
1672829347506322200,1.604322265625,-213.6275634765625,-29.562755584716797,19.94813346862793
1672829347516322000,1.614322021484375,-213.77891540527344,-30.034212112426758,19.81822967529297
1672829347526322200,1.624322265625,-214.26414489746094,-30.680622100830078,20.69742774963379
1672829347536322000,1.634322021484375,-214.73500061035156,-26.571983337402344,20.57352066040039
1672829347546322200,1.644322265625,-214.8826904296875,-30.0456485748291,20.533203125
1672829347556322000,1.654322021484375,-215.06735229492188,-28.011018753051758,21.620342254638672
1672829347566322200,1.664322265625,-215.6847381591797,-28.32411003112793,21.484407424926758
1672829347576322000,1.674322021484375,-216.98785400390625,-28.051300048828125,24.056434631347656
1672829347586322200,1.684322265625,-216.654541015625,-27.402320861816406,23.033184051513672
1672829347596322000,1.694322021484375,-215.102294921875,-26.92947769165039,23.023433685302734
1672829347606322200,1.704322265625,-217.300537109375,-26.312944412231445,24.003692626953125
1672829347616322000,1.714322021484375,-218.23770141601562,-24.576562881469727,24.092798233032227
1672829347626322200,1.724322265625,-218.255859375,-23.482755661010742,24.777841567993164
1672829347636322000,1.734322021484375,-219.3562774658203,-23.491735458374023,25.349205017089844
1672829347646322200,1.744322265625,-219.86512756347656,-21.308670043945312,27.005191802978516
1672829347656322000,1.754322021484375,-219.55140686035156,-21.14844512939453,26.857746124267578
1672829347666322200,1.764322265625,-219.59902954101562,-20.70876121520996,28.854137420654297
1672829347676322000,1.774322021484375,-220.5067138671875,-18.318256378173828,27.631898880004883
1672829347686322200,1.784322265625,-220.2694091796875,-16.157867431640625,30.582569122314453
1672829347696322000,1.794322021484375,-223.07101440429688,-16.31864356994629,30.866594314575195
1672829347706322200,1.804322265625,-225.5800323486328,-15.54386043548584,31.84125328063965
1672829347716322000,1.814322021484375,-226.68995666503906,-16.03423500061035,32.85758972167969
1672829347726322200,1.824322265625,-229.9931182861328,-14.481070518493652,34.524532318115234
1672829347736322000,1.834322021484375,-230.64669799804688,-15.45319652557373,35.987159729003906
1672829347746322200,1.844322265625,-234.6524658203125,-16.534095764160156,34.71624755859375
1672829347756322000,1.854322021484375,-236.1138458251953,-16.579641342163086,37.440879821777344
1672829347766322200,1.864322265625,-241.57716369628906,-15.331018447875977,38.536651611328125
1672829347776322000,1.874322021484375,-243.8540802001953,-16.87253761291504,36.423065185546875
1672829347786322200,1.884322265625,-247.16722106933594,-18.173383712768555,38.74931335449219
1672829347796322000,1.894322021484375,-251.4315643310547,-17.273630142211914,41.72496032714844
1672829347806322200,1.904322265625,-254.85316467285156,-18.381996154785156,42.03551483154297
1672829347816322000,1.914322021484375,-258.91461181640625,-17.922042846679688,43.01521301269531
1672829347826322200,1.924322265625,-265.8089599609375,-19.543533325195312,45.7716064453125
1672829347836322000,1.934322021484375,-270.7983703613281,-19.396434783935547,46.6144905090332
1672829347846322200,1.944322265625,-279.84381103515625,-17.678403854370117,48.116844177246094
1672829347856322000,1.954322021484375,-285.7721252441406,-14.372827529907227,49.00639343261719
1672829347866322200,1.964322265625,-293.4394226074219,-13.302630424499512,51.39322280883789
1672829347876322000,1.974322021484375,-301.27874755859375,-9.55594539642334,54.273895263671875
1672829347886322200,1.984322265625,-308.99444580078125,-7.414022922515869,58.63824462890625
1672829347896322000,1.994322021484375,-319.0306091308594,-4.15687894821167,62.53217697143555
1672829347906322200,2.004322265625,-325.7999572753906,-0.2652831971645355,66.12925720214844
1672829347916322000,2.014322021484375,-333.4953918457031,4.57999849319458,69.40818786621094
1672829347926322200,2.024322265625,-337.45025634765625,9.116217613220215,72.13265991210938
1672829347936322000,2.034322021484375,-344.4362487792969,13.234764099121094,71.70308685302734
1672829347946322200,2.044322265625,-348.987548828125,16.840566635131836,73.44881439208984
1672829347956322000,2.054322021484375,-354.9796447753906,20.099525451660156,77.06695556640625
1672829347966322200,2.064322265625,-359.21484375,24.658061981201172,78.49806213378906
1672829347976322000,2.074322021484375,-362.7103576660156,29.031007766723633,81.51577758789062
1672829347986322200,2.084322265625,-369.50482177734375,31.48087501525879,86.30416870117188
1672829347996322000,2.094322021484375,-375.5368957519531,34.39436721801758,91.65505981445312
1672829348006322200,2.104322265625,-377.83074951171875,36.2062873840332,96.61865997314453
1672829348016322000,2.114322021484375,-382.1710205078125,35.94353485107422,102.93033599853516
1672829348026322200,2.124322265625,-379.98175048828125,34.890628814697266,108.996826171875
1672829348036322000,2.134322021484375,-377.9167785644531,33.22788619995117,113.78923797607422
1672829348046322200,2.144322265625,-375.7121276855469,30.60468864440918,119.32843780517578
1672829348056322000,2.154322021484375,-375.40423583984375,27.281314849853516,119.7155532836914
1672829348066322200,2.164322265625,-373.1465148925781,28.01805877685547,122.7143783569336
1672829348076322000,2.174322021484375,-376.3123474121094,30.50690269470215,125.07150268554688
1672829348086322200,2.184322265625,-381.5213623046875,33.77016830444336,128.4046173095703
1672829348096322000,2.194322021484375,-388.73773193359375,38.782920837402344,131.10572814941406
1672829348106322200,2.204322265625,-391.5047302246094,41.06432342529297,136.34107971191406
1672829348116322000,2.214322021484375,-394.60919189453125,48.86162185668945,142.27220153808594
1672829348126322200,2.224322265625,-396.91851806640625,55.09048843383789,147.53460693359375
1672829348136322000,2.234322021484375,-395.0696716308594,59.235008239746094,154.44989013671875
1672829348146322200,2.244322265625,-393.62274169921875,66.11514282226562,158.4114990234375
1672829348156322000,2.254322021484375,-392.03973388671875,72.19037628173828,163.2587890625
1672829348166322200,2.264322265625,-391.0518493652344,76.2291259765625,167.1603546142578
1672829348176322000,2.274322021484375,-393.2950134277344,80.60848236083984,169.75074768066406
1672829348186322200,2.284322265625,-397.87518310546875,83.08612823486328,172.82199096679688
1672829348196322000,2.294322021484375,-398.05853271484375,84.01468658447266,173.94212341308594
1672829348206322200,2.304322265625,-397.967529296875,81.59532928466797,176.88548278808594
1672829348216322000,2.314322021484375,-397.36639404296875,81.422119140625,177.75363159179688
1672829348226322200,2.324322265625,-394.95050048828125,79.78858184814453,180.8236083984375
1672829348236322000,2.334322021484375,-394.4060974121094,79.25763702392578,184.14251708984375
1672829348246322200,2.344322265625,-393.4131774902344,79.18809509277344,188.16668701171875
1672829348256322000,2.354322021484375,-397.40997314453125,82.27031707763672,192.80052185058594
1672829348266322200,2.364322265625,-403.787841796875,89.27024841308594,199.32041931152344
1672829348276322000,2.374322021484375,-416.2818908691406,101.96898651123047,214.55294799804688
1672829348286322200,2.384322265625,-426.7207946777344,112.32054138183594,228.42584228515625
1672829348296322000,2.394322021484375,-432.34539794921875,118.98667907714844,235.96261596679688
1672829348306322200,2.404322265625,-434.13134765625,119.40559387207031,239.24668884277344
1672829348316322000,2.414322021484375,-431.3780212402344,117.79144287109375,241.16867065429688
1672829348326322200,2.424322265625,-425.9914855957031,118.3399429321289,236.57394409179688
1672829348336322000,2.434322021484375,-423.82781982421875,115.28123474121094,230.64236450195312
1672829348346322200,2.444322265625,-424.0026550292969,108.73824310302734,225.38233947753906
1672829348356322000,2.454322021484375,-422.8431091308594,101.15447998046875,216.28138732910156
1672829348366322200,2.464322265625,-422.6065368652344,89.14958190917969,207.1662139892578
1672829348376322000,2.474322021484375,-420.28533935546875,74.93258666992188,188.79238891601562
1672829348386322200,2.484322265625,-413.9825744628906,61.89228439331055,166.08828735351562
1672829348396322000,2.494322021484375,-400.6066589355469,50.49053955078125,139.62294006347656
1672829348406322200,2.504322265625,-384.1970520019531,36.93326187133789,109.78532409667969
1672829348416322000,2.514322021484375,-361.010009765625,27.126205444335938,82.0080337524414
1672829348426322200,2.524322265625,-337.3290710449219,19.598052978515625,59.47532272338867
1672829348436322000,2.534322021484375,-313.5101318359375,10.203956604003906,44.46306228637695
1672829348446322200,2.544322265625,-275.2026062011719,-2.171520948410034,27.714332580566406
1672829348456322000,2.554322021484375,-260.02374267578125,-6.684411525726318,23.154577255249023
1672829348466322200,2.564322265625,-260.02374267578125,-6.684411525726318,23.154577255249023
1672829348476322000,2.574322021484375,-239.9949188232422,-10.541959762573242,17.009878158569336
1672829348486322200,2.584322265625,-230.7774658203125,-14.936481475830078,15.013678550720215
1672829348496322000,2.594322021484375,-223.9401397705078,-16.203351974487305,14.927124977111816
1672829348506322200,2.604322265625,-220.02964782714844,-17.45078468322754,13.826952934265137
1672829348516322000,2.614322021484375,-215.56033325195312,-20.009401321411133,15.494843482971191
1672829348526322200,2.624322265625,-212.43875122070312,-22.056108474731445,14.990488052368164
1672829348536322000,2.634322021484375,-208.58297729492188,-22.552745819091797,16.16449737548828
1672829348546322200,2.644322265625,-207.96644592285156,-24.296247482299805,16.50533676147461
1672829348556322000,2.654322021484375,-205.86036682128906,-26.56159210205078,19.59330177307129
1672829348566322200,2.664322265625,-203.70089721679688,-28.471654891967773,20.374080657958984
1672829348576322000,2.674322021484375,-205.708251953125,-26.7221736907959,19.742067337036133
1672829348586322200,2.684322265625,-203.67604064941406,-29.560556411743164,19.401819229125977
1672829348596322000,2.694322021484375,-206.4881134033203,-29.41267204284668,20.107242584228516
1672829348606322200,2.704322265625,-207.42672729492188,-29.258853912353516,20.387109756469727
1672829348616322000,2.714322021484375,-204.12921142578125,-28.91834259033203,18.807201385498047
1672829348626322200,2.724322265625,-205.72811889648438,-29.74155616760254,20.836917877197266
1672829348636322000,2.734322021484375,-206.464599609375,-29.395496368408203,19.10197639465332
1672829348646322200,2.744322265625,-206.79196166992188,-29.40752601623535,19.81914520263672
1672829348656322000,2.754322021484375,-204.94593811035156,-28.947189331054688,20.528322219848633
1672829348666322200,2.764322265625,-205.97523498535156,-29.378679275512695,18.098024368286133
1672829348676322000,2.774322021484375,-206.0142059326172,-30.514196395874023,19.854347229003906
1672829348686322200,2.784322265625,-206.0622100830078,-29.758493423461914,21.841304779052734
1672829348696322000,2.794322021484375,-207.0870819091797,-28.288944244384766,19.067214965820312
1672829348706322200,2.804322265625,-207.08804321289062,-27.498889923095703,19.04364013671875
1672829348716322000,2.814322021484375,-206.62738037109375,-28.76824188232422,19.369895935058594
1672829348726322200,2.824322265625,-204.75486755371094,-27.97225570678711,18.920764923095703
1672829348736322000,2.834322021484375,-206.944091796875,-29.2469425201416,19.670379638671875
1672829348746322200,2.844322265625,-205.07223510742188,-30.66556167602539,19.430870056152344
1672829348756322000,2.854322021484375,-205.86383056640625,-29.252683639526367,19.960676193237305
1672829348766322200,2.864322265625,-205.6895294189453,-28.290014266967773,19.071168899536133
1672829348776322000,2.874322021484375,-205.8624725341797,-30.358760833740234,19.993680953979492
1672829348786322200,2.884322265625,-205.7109375,-30.04530906677246,20.128299713134766
1672829348796322000,2.894322021484375,-207.7378692626953,-28.784584045410156,20.372085571289062
1672829348806322200,2.904322265625,-205.66465759277344,-29.378917694091797,18.09890365600586
1672829348816322000,2.914322021484375,-206.48196411132812,-28.933731079101562,19.805879592895508
1672829348826322200,2.924322265625,-205.08663940429688,-29.88532257080078,19.981733322143555
1672829348836322000,2.934322021484375,-205.8385772705078,-30.65760612487793,18.99784278869629
1672829348846322200,2.944322265625,-206.6421661376953,-27.671979904174805,19.91132926940918
1672829348856322000,2.954322021484375,-208.0152130126953,-28.44378662109375,18.92568016052246
1672829348866322200,2.964322265625,-204.6105194091797,-30.03632926940918,19.556936264038086
1672829348876322000,2.974322021484375,-206.01516723632812,-29.72414207458496,19.830772399902344
1672829348886322200,2.984322265625,-205.71304321289062,-28.30718994140625,20.076435089111328
1672829348896322000,2.994322021484375,-205.88023376464844,-29.580974578857422,20.688154220581055
1672829348906322200,3.004322265625,-205.39979553222656,-30.519580841064453,20.14332389831543
1672829348916322000,3.014322021484375,-207.070556640625,-30.80730438232422,18.568214416503906
1672829348926322200,3.024322265625,-205.86439514160156,-28.77865219116211,19.946531295776367
1672829348936322000,3.034322021484375,-205.4266815185547,-30.539209365844727,21.29220199584961
1672829348946322200,3.044322265625,-204.9281768798828,-29.7249755859375,19.83384895324707
1672829348956322000,3.054322021484375,-206.64080810546875,-28.778057098388672,19.944334030151367
1672829348966322200,3.064322265625,-205.08030700683594,-29.564393997192383,19.685083389282227
1672829348976322000,3.074322021484375,-206.64024353027344,-29.25208854675293,19.958478927612305
1672829348986322200,3.084322265625,-206.62738037109375,-28.76824188232422,19.369895935058594
1672829348996322000,3.094322021484375,-206.64993286132812,-29.575471878051758,20.39873695373535
1672829349006322200,3.104322265625,-206.7942657470703,-27.511394500732422,19.76256561279297
1672829349016322000,3.114322021484375,-204.47731018066406,-28.471059799194336,20.371883392333984
1672829349026322200,3.124322265625,-205.09844970703125,-28.470584869384766,20.370126724243164
1672829349036322000,3.134322021484375,-204.80133056640625,-28.48063850402832,20.945444107055664
1672829349046322200,3.144322265625,-204.93222045898438,-26.406747817993164,19.734834671020508
1672829349056322000,3.154322021484375,-205.71766662597656,-24.514928817749023,19.963275909423828
1672829349066322200,3.164322265625,-206.01844787597656,-21.502670288085938,19.298372268676758
1672829349076322000,3.174322021484375,-209.14117431640625,-24.04318618774414,20.226680755615234
1672829349086322200,3.184322265625,-211.12806701660156,-25.283641815185547,18.966203689575195
1672829349096322000,3.194322021484375,-212.7063446044922,-23.719518661499023,19.919925689697266
1672829349106322200,3.204322265625,-215.14114379882812,-25.895418167114258,17.968368530273438
1672829349116322000,3.214322021484375,-215.62319946289062,-26.381362915039062,18.699243545532227
1672829349126322200,3.224322265625,-214.0757598876953,-27.493534088134766,19.02386474609375
1672829349136322000,3.234322021484375,-212.69326782226562,-28.928970336914062,19.788301467895508
1672829349146322200,3.244322265625,-213.31344604492188,-29.718549728393555,19.81011962890625
1672829349156322000,3.254322021484375,-214.0908203125,-28.927900314331055,19.784347534179688
1672829349166322200,3.264322265625,-213.94725036621094,-30.35993194580078,20.401657104492188
1672829349176322000,3.274322021484375,-215.35208129882812,-29.889734268188477,20.6707763671875
1672829349186322200,3.284322265625,-215.85902404785156,-29.28677749633789,22.373912811279297
1672829349196322000,3.294322021484375,-217.38612365722656,-28.31789207458496,21.192354202270508
1672829349206322200,3.304322265625,-219.88111877441406,-28.0073299407959,21.606719970703125
1672829349216322000,3.314322021484375,-219.41526794433594,-28.007686614990234,21.6080379486084
1672829349226322200,3.324322265625,-220.55062866210938,-26.93512535095215,23.58249282836914
1672829349236322000,3.334322021484375,-221.16494750976562,-24.241106033325195,23.069751739501953
1672829349246322200,3.344322265625,-222.44973754882812,-25.22011375427246,24.961450576782227
1672829349256322000,3.354322021484375,-223.2190399169922,-25.53063201904297,24.68146514892578
1672829349266322200,3.364322265625,-222.50042724609375,-22.25225830078125,26.882400512695312
1672829349276322000,3.374322021484375,-224.17369079589844,-20.48583984375,25.24599838256836
1672829349286322200,3.384322265625,-223.8627471923828,-20.802099227905273,25.25630760192871
1672829349296322000,3.394322021484375,-223.43223571777344,-19.404895782470703,26.651287078857422
1672829349306322200,3.404322265625,-223.28240966796875,-17.669347763061523,26.74346923828125
1672829349316322000,3.414322021484375,-224.114990234375,-18.500518798828125,29.206209182739258
1672829349326322200,3.424322265625,-225.94842529296875,-15.4723482131958,27.675256729125977
1672829349336322000,3.434322021484375,-227.2576904296875,-15.678479194641113,30.548648834228516
1672829349346322200,3.444322265625,-229.26014709472656,-15.190630912780762,29.810741424560547
1672829349356322000,3.454322021484375,-229.3081512451172,-14.434926986694336,31.797700881958008
1672829349366322200,3.464322265625,-232.41696166992188,-14.593011856079102,31.937238693237305
1672829349376322000,3.474322021484375,-233.37612915039062,-14.137894630432129,33.0693359375
1672829349386322200,3.484322265625,-235.23779296875,-15.558564186096191,33.10649871826172
1672829349396322000,3.494322021484375,-238.05140686035156,-14.146592140197754,33.774200439453125
1672829349406322200,3.504322265625,-238.84999084472656,-15.269248008728027,34.810272216796875
1672829349416322000,3.514322021484375,-241.05946350097656,-13.712008476257324,36.19306945800781
1672829349426322200,3.524322265625,-244.6566925048828,-14.676966667175293,37.360130310058594
1672829349436322000,3.534322021484375,-247.9596710205078,-13.281811714172363,39.03178024291992
1672829349446322200,3.544322265625,-252.39686584472656,-11.762165069580078,42.706172943115234
1672829349456322000,3.554322021484375,-255.49099731445312,-10.169861793518066,42.07579803466797
1672829349466322200,3.564322265625,-262.394775390625,-9.584107398986816,45.05340576171875
1672829349476322000,3.574322021484375,-269.5927734375,-5.823175430297852,47.07417678833008
1672829349486322200,3.584322265625,-273.9189758300781,-3.861511468887329,52.60179138183594
1672829349496322000,3.594322021484375,-277.8316650390625,-3.564596652984619,53.873863220214844
1672829349506322200,3.604322265625,-281.74847412109375,-2.638092279434204,55.27068328857422
1672829349516322000,3.614322021484375,-284.8947448730469,0.33950507640838623,56.75201416015625
1672829349526322200,3.624322265625,-287.25335693359375,2.375802516937256,57.833003997802734
1672829349536322000,3.634322021484375,-290.70172119140625,3.9364471435546875,59.068668365478516
1672829349546322200,3.644322265625,-293.8367614746094,5.973340034484863,60.147464752197266
1672829349556322000,3.654322021484375,-293.86163330078125,7.062241077423096,61.119728088378906
1672829349566322200,3.664322265625,-298.2385559082031,8.784064292907715,62.204437255859375
1672829349576322000,3.674322021484375,-301.85400390625,11.759564399719238,63.828060150146484
1672829349586322200,3.684322265625,-303.7768249511719,13.615411758422852,66.20756530761719
1672829349596322000,3.694322021484375,-305.6889953613281,15.004587173461914,68.17040252685547
1672829349606322200,3.704322265625,-307.32830810546875,16.998577117919922,71.69495391845703
1672829349616322000,3.714322021484375,-313.17742919921875,19.299535751342773,75.916259765625
1672829349626322200,3.724322265625,-316.42889404296875,19.783430099487305,75.46204376220703
1672829349636322000,3.734322021484375,-318.0469055175781,20.84407615661621,78.15322875976562
1672829349646322200,3.744322265625,-321.72119140625,25.19996452331543,82.17579650878906
1672829349656322000,3.754322021484375,-325.5127868652344,25.946256637573242,84.87024688720703
1672829349666322200,3.764322265625,-328.57000732421875,28.08460807800293,89.24779510498047
1672829349676322000,3.774322021484375,-328.9528503417969,29.455419540405273,92.22028350830078
1672829349686322200,3.784322265625,-329.8420715332031,30.955154418945312,96.91004943847656
1672829349696322000,3.794322021484375,-332.5784912109375,32.9426155090332,100.86234283447266
1672829349706322200,3.804322265625,-333.2364501953125,35.604740142822266,102.2165298461914
1672829349716322000,3.814322021484375,-338.1448974609375,41.549049377441406,105.7575912475586
1672829349726322200,3.824322265625,-337.5987548828125,45.13129425048828,108.66670989990234
1672829349736322000,3.834322021484375,-340.4769592285156,52.66398239135742,111.5918960571289
1672829349746322200,3.844322265625,-340.1084899902344,60.8163948059082,115.08187866210938
1672829349756322000,3.854322021484375,-343.1521911621094,71.18849182128906,118.20897674560547
1672829349766322200,3.864322265625,-346.2724609375,78.18346405029297,124.88172912597656
1672829349776322000,3.874322021484375,-348.8918151855469,89.47383117675781,129.7051544189453
1672829349786322200,3.884322265625,-351.6863708496094,95.0562744140625,135.84678649902344
1672829349796322000,3.894322021484375,-354.8217468261719,100.61688232421875,143.2799835205078
1672829349806322200,3.904322265625,-356.0162353515625,106.0744857788086,147.42018127441406
1672829349816322000,3.914322021484375,-361.946044921875,108.31656646728516,155.08810424804688
1672829349826322200,3.924322265625,-367.51861572265625,110.90877532958984,160.73695373535156
1672829349836322000,3.934322021484375,-373.85589599609375,120.98783111572266,171.90211486816406
1672829349846322200,3.944322265625,-377.005859375,127.4866943359375,179.88148498535156
1672829349856322000,3.954322021484375,-382.1711730957031,133.98956298828125,187.7115478515625
1672829349866322200,3.964322265625,-383.38848876953125,136.1092987060547,193.09962463378906
1672829349876322000,3.974322021484375,-383.5668640136719,138.98391723632812,200.47775268554688
1672829349886322200,3.984322265625,-384.15667724609375,138.57748413085938,205.79940795898438
1672829349896322000,3.994322021484375,-384.26141357421875,138.97544860839844,210.23715209960938
1672829349906322200,4.004322265625,-386.8738708496094,136.35348510742188,215.90634155273438
1672829349916322000,4.014322021484375,-389.40374755859375,135.41799926757812,224.53990173339844
1672829349926322200,4.024322265625,-393.9466247558594,138.12567138671875,232.6284637451172
1672829349936322000,4.034322021484375,-395.3185119628906,139.61349487304688,238.0349884033203
1672829349946322200,4.044322265625,-393.5851135253906,141.4149627685547,243.4408416748047
1672829349956322000,4.054322021484375,-388.9366455078125,139.07644653320312,250.70095825195312
1672829349966322200,4.064322265625,-384.54522705078125,142.47071838378906,255.20545959472656
1672829349976322000,4.074322021484375,-383.79840087890625,154.44374084472656,275.3774108886719
1672829349986322200,4.084322265625,-383.79840087890625,154.44374084472656,275.3774108886719
1672829349996322000,4.094322021484375,-388.9794921875,192.4275665283203,307.8193054199219
1672829350006322200,4.104322265625,-395.9151916503906,217.9536590576172,330.00555419921875
1672829350016322000,4.114322021484375,-403.789794921875,246.6382293701172,352.2384948730469
1672829350026322200,4.124322265625,-409.6630859375,284.5260009765625,381.0926513671875
1672829350036322000,4.134322021484375,-414.6431579589844,323.650146484375,411.491455078125
1672829350046322200,4.144322265625,-416.5760803222656,369.3715515136719,443.85516357421875
1672829350056322000,4.154322021484375,-412.8633117675781,422.4488525390625,479.8909912109375
1672829350066322200,4.164322265625,-405.8978271484375,487.8533630371094,515.2810668945312
1672829350076322000,4.174322021484375,-389.2792663574219,562.60009765625,548.8404541015625
1672829350086322200,4.184322265625,-372.0926208496094,630.259765625,571.9905395507812
1672829350096322000,4.194322021484375,-366.71343994140625,663.1996459960938,584.94677734375
1672829350106322200,4.204322265625,-359.2955322265625,673.1314697265625,585.6761474609375
1672829350116322000,4.214322021484375,-357.22564697265625,666.9993286132812,583.998779296875
1672829350126322200,4.224322265625,-356.3062438964844,666.040771484375,584.6040649414062
1672829350136322000,4.234322021484375,-354.13153076171875,665.4070434570312,584.6290893554688
1672829350146322200,4.244322265625,-355.8118896484375,667.4845581054688,583.2705688476562
1672829350156322000,4.254322021484375,-356.7825012207031,669.0384521484375,584.8004150390625
1672829350166322200,4.264322265625,-354.5849914550781,669.053955078125,583.8013305664062
1672829350176322000,4.274322021484375,-355.55279541015625,671.084228515625,585.1734619140625
1672829350186322200,4.284322265625,-355.224853515625,670.6221923828125,584.470458984375
1672829350196322000,4.294322021484375,-352.8551940917969,667.80322265625,582.9822387695312
1672829350206322200,4.304322265625,-347.5321044921875,667.9891357421875,581.1255493164062
1672829350216322000,4.314322021484375,-349.6911926269531,669.5831298828125,580.354248046875
1672829350226322200,4.324322265625,-350.6459045410156,666.404052734375,581.5947875976562
1672829350236322000,4.334322021484375,-349.3863525390625,668.7879638671875,580.6658325195312
1672829350246322200,4.344322265625,-348.9363708496094,667.9852905273438,581.4088134765625
1672829350256322000,4.354322021484375,-349.6942443847656,666.5760498046875,580.73095703125
1672829350266322200,4.364322265625,-349.1192932128906,668.5977783203125,582.5383911132812
1672829350276322000,4.374322021484375,-350.3494567871094,669.7147216796875,581.9273681640625
1672829350286322200,4.384322265625,-347.3736572265625,668.1494750976562,580.9776611328125
1672829350296322000,4.394322021484375,-349.7133483886719,668.4598999023438,581.3924560546875
1672829350306322200,4.404322265625,-348.4732971191406,667.5084838867188,581.56787109375
1672829350316322000,4.414322021484375,-349.7141418457031,669.0919189453125,581.3735961914062
1672829350326322200,4.424322265625,-347.9953308105469,668.6239624023438,580.9617309570312
1672829350336322000,4.434322021484375,-348.45245361328125,669.7378540039062,580.4965209960938
1672829350346322200,4.444322265625,-348.651611328125,669.864013671875,582.3583374023438
1672829350356322000,4.454322021484375,-348.9608459472656,668.7581176757812,582.3905029296875
1672829350366322200,4.464322265625,-348.0259704589844,668.91796875,582.244873046875
1672829350376322000,4.474322021484375,-348.8182067871094,668.1162109375,582.9842529296875
1672829350386322200,4.484322265625,-349.777587890625,668.7293090820312,584.1116333007812
1672829350396322000,4.494322021484375,-346.7734375,668.7662963867188,581.822265625
1672829350406322200,4.504322265625,-346.476318359375,668.7562255859375,582.3975219726562
1672829350416322000,4.514322021484375,-345.6831970214844,666.079345703125,581.9054565429688
1672829350426322200,4.524322265625,-344.7778015136719,665.5849609375,583.0711059570312
1672829350436322000,4.534322021484375,-345.0648498535156,665.6023559570312,582.06494140625
1672829350446322200,4.544322265625,-345.825439453125,666.4052124023438,581.3211669921875
1672829350456322000,4.554322021484375,-344.79632568359375,666.9947509765625,583.7467651367188
1672829350466322200,4.564322265625,-344.8009338378906,665.2517700195312,584.0857543945312
1672829350476322000,4.574322021484375,-344.6438293457031,666.5181884765625,583.9048461914062
1672829350486322200,4.584322265625,-345.5622863769531,666.6867065429688,583.3231201171875
1672829350496322000,4.594322021484375,-345.6736755371094,666.5606689453125,581.46044921875
1672829350506322200,4.604322265625,-346.8090515136719,667.6332397460938,583.4349365234375
1672829350516322000,4.614322021484375,-345.8981018066406,668.0918579101562,584.2850952148438
1672829350526322200,4.624322265625,-344.6109924316406,667.1747436523438,582.4498901367188
1672829350536322000,4.634322021484375,-348.0591735839844,668.5773315429688,583.6903686523438
1672829350546322200,4.644322265625,-347.1603088378906,667.9200439453125,585.14794921875
1672829350556322000,4.654322021484375,-345.9181823730469,670.7657470703125,584.9229736328125
1672829350566322200,4.664322265625,-345.9095458984375,669.1905517578125,584.6829223632812
1672829350576322000,4.674322021484375,-347.6443176269531,669.0142211914062,585.8316650390625
1672829350586322200,4.684322265625,-346.36395263671875,668.0922241210938,584.2837524414062
1672829350596322000,4.694322021484375,-347.14044189453125,670.9393920898438,584.0530395507812
1672829350606322200,4.704322265625,-346.55194091796875,670.1243286132812,585.5144653320312
1672829350616322000,4.714322021484375,-347.1492004394531,669.8259887695312,584.516845703125
1672829350626322200,4.724322265625,-347.1559143066406,669.8211059570312,584.8040771484375
1672829350636322000,4.734322021484375,-346.06182861328125,669.5091552734375,584.5294189453125
1672829350646322200,4.744322265625,-347.173095703125,670.1248168945312,585.5126953125
1672829350656322000,4.754322021484375,-346.39111328125,671.0772094726562,585.1994018554688
1672829350666322200,4.764322265625,-347.0038146972656,669.6605224609375,584.9528198242188
1672829350676322000,4.774322021484375,-346.8524475097656,670.1319580078125,585.0828857421875
1672829350686322200,4.784322265625,-346.67108154296875,670.7835083007812,583.91552734375
1672829350696322000,4.794322021484375,-346.8127136230469,670.6354370117188,583.3453369140625
1672829350706322200,4.804322265625,-345.9181823730469,670.7657470703125,584.9229736328125
1672829350716322000,4.814322021484375,-347.18115234375,671.22607421875,585.7669677734375
1672829350726322200,4.824322265625,-346.08441162109375,668.701904296875,585.5582275390625
1672829350736322000,4.834322021484375,-347.01416015625,672.6578369140625,585.1505126953125
1672829350746322200,4.844322265625,-347.0108947753906,669.9716186523438,585.2306518554688
1672829350756322000,4.854322021484375,-346.6882629394531,671.0872802734375,584.6241455078125
1672829350766322200,4.864322265625,-346.5727844238281,667.89501953125,586.5858154296875
1672829350776322000,4.874322021484375,-347.494140625,670.4337768554688,585.9332275390625
1672829350786322200,4.884322265625,-346.8638916015625,671.230712890625,585.4805908203125
1672829350796322000,4.894322021484375,-345.91107177734375,670.4546508789062,584.6452026367188
1672829350806322200,4.904322265625,-346.0645446777344,671.7212524414062,584.46337890625
1672829350816322000,4.914322021484375,-346.85302734375,670.6060180664062,585.0687255859375
1672829350826322200,4.924322265625,-346.39208984375,671.8672485351562,585.1758422851562
1672829350836322000,4.934322021484375,-346.1009216308594,671.2202758789062,586.0573120117188
1672829350846322200,4.944322265625,-347.78155517578125,670.7672119140625,584.9176635742188
1672829350856322000,4.954322021484375,-346.3608703613281,671.0993041992188,583.9069213867188
1672829350866322200,4.964322265625,-347.61407470703125,669.0363159179688,584.5391235351562
1672829350876322000,4.974322021484375,-345.75872802734375,670.135986328125,584.7986450195312
1672829350886322200,4.984322265625,-347.4652404785156,671.5619506835938,584.6077880859375
1672829350896322000,4.994322021484375,-347.4638977050781,670.4558715820312,584.6408081054688
1672829350906322200,5.004322265625,-346.7113952636719,670.7540893554688,585.6388549804688
1672829350916322000,5.014322021484375,-346.8702087402344,670.9097290039062,585.77734375
1672829350926322200,5.024322265625,-347.20391845703125,670.5767822265625,586.7910766601562
1672829350936322000,5.034322021484375,-348.73992919921875,670.5902709960938,586.0686645507812
1672829350946322200,5.044322265625,-348.096923828125,669.1824340820312,585.2511596679688
1672829350956322000,5.054322021484375,-346.8765563964844,670.5888061523438,586.073974609375
1672829350966322200,5.064322265625,-346.8631286621094,670.5986328125,585.4994506835938
1672829350976322000,5.074322021484375,-345.9114685058594,670.7706298828125,584.6358032226562
1672829350986322200,5.084322265625,-346.98931884765625,671.5689086914062,584.17822265625
1672829350996322000,5.094322021484375,-347.6630554199219,670.5820922851562,586.5026245117188
1672829351006322200,5.104322265625,-346.56597900390625,670.5885620117188,586.0748291015625
1672829351016322000,5.114322021484375,-346.3753662109375,669.19091796875,584.6815795898438
1672829351026322200,5.124322265625,-347.1327819824219,670.154296875,583.7894287109375
1672829351036322000,5.134322021484375,-348.58380126953125,672.6467895507812,585.8641357421875
1672829351046322200,5.144322265625,-347.6302185058594,671.2387084960938,585.0476684570312
1672829351056322000,5.154322021484375,-346.0471496582031,671.259521484375,583.759521484375
1672829351066322200,5.164322265625,-347.1639709472656,670.9222412109375,585.0584106445312
1672829351076322000,5.174322021484375,-346.3843994140625,671.0821533203125,584.9121704101562
1672829351086322200,5.184322265625,-347.47772216796875,670.7620849609375,585.205810546875
1672829351096322000,5.194322021484375,-347.0055236816406,671.0826416015625,584.910400390625
1672829351106322200,5.204322265625,-347.95086669921875,671.2315673828125,585.4774780273438
1672829351116322000,5.214322021484375,-347.13372802734375,670.9443359375,583.7658081054688
1672829351126322200,5.224322265625,-346.3672180175781,670.7783813476562,584.20361328125
1672829351136322000,5.234322021484375,-343.76947021484375,672.1690063476562,585.8919067382812
1672829351146322200,5.244322265625,-346.9984130859375,670.771484375,584.6326904296875
1672829351156322000,5.254322021484375,-347.18115234375,671.22607421875,585.7669677734375
1672829351166322200,5.264322265625,-346.5189208984375,670.6229248046875,584.0642700195312
1672829351176322000,5.274322021484375,-346.3699035644531,672.9905395507812,584.1375732421875
1672829351186322200,5.284322265625,-346.09381103515625,670.9091186523438,585.779541015625
1672829351196322000,5.294322021484375,-347.0132141113281,671.8677368164062,585.174072265625
1672829351206322200,5.304322265625,-345.01123046875,669.00732421875,586.1263427734375
1672829351216322000,5.314322021484375,-346.3907165527344,670.76123046875,585.2088623046875
1672829351226322200,5.324322265625,-345.6043395996094,668.0794067382812,585.0039672851562
1672829351236322000,5.334322021484375,-347.20391845703125,670.5767822265625,586.7910766601562
1672829351246322200,5.344322265625,-346.51837158203125,670.1488647460938,584.0784301757812
1672829351256322000,5.354322021484375,-346.8638916015625,671.230712890625,585.4805908203125
1672829351266322200,5.364322265625,-345.741943359375,670.1483154296875,584.0806274414062
1672829351276322000,5.374322021484375,-346.67645263671875,669.6725463867188,584.2357177734375
1672829351286322200,5.384322265625,-347.93365478515625,670.9277954101562,584.7688598632812
1672829351296322000,5.394322021484375,-346.8638916015625,671.230712890625,585.4805908203125
1672829351306322200,5.404322265625,-346.694580078125,670.766357421875,584.9207763671875
1672829351316322000,5.414322021484375,-346.6999816894531,669.6553955078125,585.240966796875
1672829351326322200,5.424322265625,-347.4714050292969,671.0830078125,584.9091186523438
1672829351336322000,5.434322021484375,-346.5334167480469,668.7145385742188,584.8388671875
1672829351346322200,5.444322265625,-347.78790283203125,670.4462890625,585.2142944335938
1672829351356322000,5.454322021484375,-346.73394775390625,669.9468383789062,586.6676635742188
1672829351366322200,5.464322265625,-346.6999816894531,669.6553955078125,585.240966796875
1672829351376322000,5.474322021484375,-345.8000183105469,670.8966064453125,586.4984130859375
1672829351386322200,5.484322265625,-347.0118713378906,670.76171875,585.2070922851562
1672829351396322000,5.494322021484375,-348.5508728027344,670.4567260742188,584.6376953125
1672829351406322200,5.504322265625,-347.7886657714844,671.0783081054688,585.1954345703125
1672829351416322000,5.514322021484375,-346.7194519042969,671.855224609375,585.8930053710938
1672829351426322200,5.524322265625,-347.0055236816406,671.0826416015625,584.910400390625
1672829351436322000,5.534322021484375,-345.75299072265625,670.9310302734375,584.48779296875
1672829351446322200,5.544322265625,-345.6315002441406,671.0643920898438,585.9196166992188
1672829351456322000,5.554322021484375,-346.4233703613281,669.9465942382812,586.6685180664062
1672829351466322200,5.564322265625,-345.94171142578125,670.7485961914062,585.92822265625
1672829351476322000,5.574322021484375,-345.9517822265625,670.7412109375,586.3590698242188
1672829351486322200,5.584322265625,-346.7190856933594,671.5392456054688,585.9024047851562
1672829351496322000,5.594322021484375,-346.8399963378906,670.9318237304688,584.4847412109375
1672829351506322200,5.604322265625,-346.7013244628906,670.761474609375,585.2080078125
1672829351516322000,5.614322021484375,-346.6875,670.4552612304688,584.6430053710938
1672829351526322200,5.624322265625,-345.00048828125,671.2293090820312,585.48583984375
1672829351536322000,5.634322021484375,-346.72625732421875,669.1617431640625,586.4039916992188
1672829351546322200,5.644322265625,-346.8644714355469,671.7047119140625,585.4664306640625
1672829351556322000,5.654322021484375,-346.700927734375,670.4454345703125,585.2174072265625
1672829351566322200,5.664322265625,-346.36279296875,672.6793823242188,583.8598022460938
1672829351576322000,5.674322021484375,-345.60223388671875,671.8765258789062,584.6036376953125
1672829351586322200,5.684322265625,-346.5764465332031,670.897216796875,586.4962158203125
1672829351596322000,5.694322021484375,-346.8648376464844,672.020751953125,585.45703125
1672829351606322200,5.704322265625,-347.4538269042969,670.4632568359375,584.2099609375
1672829351616322000,5.714322021484375,-347.50421142578125,670.4264526367188,586.3640747070312
1672829351626322200,5.724322265625,-348.3827209472656,670.9403686523438,584.049560546875
1672829351636322000,5.734322021484375,-347.5109558105469,670.4215087890625,586.6513061523438
1672829351646322200,5.744322265625,-347.1713562011719,668.7027587890625,585.5551147460938
1672829351656322000,5.754322021484375,-346.718505859375,671.065185546875,585.9165649414062
1672829351666322200,5.764322265625,-347.1649475097656,671.7122802734375,585.0347900390625
1672829351676322000,5.774322021484375,-346.67681884765625,669.9885864257812,584.226318359375
1672829351686322200,5.784322265625,-347.5891418457031,670.6360473632812,583.3431396484375
1672829351696322000,5.794322021484375,-348.5818786621094,671.066650390625,585.9112548828125
1672829351706322200,5.804322265625,-345.919921875,672.1878051757812,584.8804931640625
1672829351716322000,5.814322021484375,-347.9273376464844,671.2487182617188,584.4722290039062
1672829351726322200,5.824322265625,-346.689208984375,671.8773193359375,584.6005859375
1672829351736322000,5.834322021484375,-347.6485595703125,672.490478515625,585.7279663085938
1672829351746322200,5.844322265625,-346.0645446777344,671.7212524414062,584.46337890625
1672829351756322000,5.854322021484375,-345.4794006347656,670.90380859375,586.0684814453125
1672829351766322200,5.864322265625,-344.98193359375,669.8194580078125,584.8102416992188
1672829351776322000,5.874322021484375,-345.45684814453125,671.7109985351562,585.0396118164062
1672829351786322200,5.884322265625,-346.7117919921875,671.0701293945312,585.62939453125
1672829351796322000,5.894322021484375,-346.3924560546875,672.1832885742188,585.1663818359375
1672829351806322200,5.904322265625,-347.4471130371094,670.4681396484375,583.9227294921875
1672829351816322000,5.914322021484375,-344.8311767578125,670.7649536132812,584.926025390625
1672829351826322200,5.924322265625,-345.89599609375,671.8889770507812,583.8847045898438
1672829351836322000,5.934322021484375,-347.7647705078125,670.7794799804688,584.1996459960938
1672829351846322200,5.944322265625,-346.8778991699219,671.6948852539062,586.0409545898438
1672829351856322000,5.954322021484375,-347.62408447265625,671.7175903320312,584.7462158203125
1672829351866322200,5.964322265625,-345.4659423828125,670.91357421875,585.493896484375
1672829351876322000,5.974322021484375,-347.16436767578125,671.2383422851562,585.0489501953125
1672829351886322200,5.984322265625,-346.09246826171875,669.8030395507812,585.8125
1672829351896322000,5.994322021484375,-346.0760498046875,670.13134765625,585.0850830078125
1672829351906322200,6.004322265625,-347.6466369628906,670.9103393554688,585.775146484375
1672829351916322000,6.014322021484375,-344.8240661621094,670.453857421875,584.6482543945312
1672829351926322200,6.024322265625,-343.7197265625,669.9912109375,583.9474487304688
1672829351936322000,6.034322021484375,-347.90142822265625,672.0584106445312,583.2998046875
1672829351946322200,6.044322265625,-347.8218688964844,670.73779296875,586.6409912109375
1672829351956322000,6.054322021484375,-346.7117919921875,671.0701293945312,585.62939453125
1672829351966322200,6.064322265625,-346.73358154296875,669.630859375,586.6770629882812
1672829351976322000,6.074322021484375,-347.6302185058594,671.2387084960938,585.0476684570312
1672829351986322200,6.084322265625,-346.0458068847656,670.1534423828125,583.7925415039062
1672829351996322000,6.094322021484375,-346.8520812988281,669.81591796875,585.09228515625
1672829352006322200,6.104322265625,-347.9671630859375,673.5919189453125,585.9812622070312
1672829352016322000,6.114322021484375,-347.62945556640625,670.6066284179688,585.0665283203125
1672829352026322200,6.124322265625,-345.6085510253906,671.5556030273438,584.9002075195312
1672829352036322000,6.134322021484375,-346.3849792480469,671.55615234375,584.8980102539062
1672829352046322200,6.144322265625,-347.95086669921875,671.2315673828125,585.4774780273438
1672829352056322000,6.154322021484375,-347.1662902832031,672.8184204101562,585.0017700195312
1672829352066322200,6.164322265625,-346.98931884765625,671.5689086914062,584.17822265625
1672829352076322000,6.174322021484375,-348.41632080078125,670.9158325195312,585.485595703125
1672829352086322200,6.184322265625,-346.51220703125,670.6278076171875,583.7770385742188
1672829352096322000,6.194322021484375,-347.03778076171875,669.9520263671875,586.3795166015625
1672829352106322200,6.204322265625,-347.18115234375,671.22607421875,585.7669677734375
1672829352116322000,6.214322021484375,-347.79931640625,671.5449829101562,585.6121215820312
1672829352126322200,6.224322265625,-346.5653991699219,670.114501953125,586.0889892578125
1672829352136322000,6.234322021484375,-347.1736755371094,670.598876953125,585.49853515625
1672829352146322200,6.244322265625,-346.7181091308594,670.7492065429688,585.926025390625
1672829352156322000,6.254322021484375,-346.0534973144531,670.9385375976562,584.05615234375
1672829352166322200,6.264322265625,-347.0078430175781,672.978759765625,584.8538208007812
1672829352176322000,6.274322021484375,-346.8524475097656,670.1319580078125,585.0828857421875
1672829352186322200,6.284322265625,-345.4269714355469,672.0491943359375,583.7376708984375
1672829352196322000,6.294322021484375,-346.3554992675781,672.2102661132812,583.5867309570312
1672829352206322200,6.304322265625,-347.6624755859375,670.1080322265625,586.5167846679688
1672829352216322000,6.314322021484375,-347.8161315917969,671.53271484375,586.3301391601562
1672829352226322200,6.324322265625,-345.94207763671875,671.0645751953125,585.9187622070312
1672829352236322000,6.334322021484375,-346.4004211425781,670.4378662109375,585.6491088867188
1672829352246322200,6.344322265625,-346.0779724121094,671.71142578125,585.0379028320312
1672829352256322000,6.354322021484375,-346.6896057128906,672.193359375,584.5911254882812
1672829352266322200,6.364322265625,-346.8765563964844,670.5888061523438,586.073974609375
1672829352276322000,6.374322021484375,-347.0223388671875,671.0703735351562,585.6284790039062
1672829352286322200,6.384322265625,-347.6288757324219,670.132568359375,585.0806884765625
1672829352296322000,6.394322021484375,-346.8453674316406,669.8208618164062,584.8049926757812
1672829352306322200,6.404322265625,-344.8483581542969,671.0687255859375,585.6346435546875
1672829352316322000,6.414322021484375,-347.1875,670.9050903320312,586.0636596679688
1672829352326322200,6.424322265625,-347.5140075683594,672.9496459960938,586.5758666992188
1672829352336322000,6.434322021484375,-346.56097412109375,672.015625,585.7451782226562
1672829352346322200,6.444322265625,-346.72955322265625,671.847900390625,586.3238525390625
1672829352356322000,6.454322021484375,-346.57470703125,669.4751586914062,586.5386962890625
1672829352366322200,6.464322265625,-348.6131591796875,669.14599609375,587.4039306640625
1672829352376322000,6.474322021484375,-346.7530517578125,671.8306884765625,587.3291015625
1672829352386322200,6.484322265625,-346.7433776855469,672.1541137695312,586.8888549804688
1672829352396322000,6.494322021484375,-345.52239990234375,673.0865478515625,587.7257080078125
1672829352406322200,6.504322265625,-346.9259948730469,669.761962890625,588.2516479492188
1672829352416322000,6.514322021484375,-345.67010498046875,669.6129150390625,587.6853637695312
1672829352426322200,6.524322265625,-346.6062927246094,670.5591430664062,587.798095703125
1672829352436322000,6.534322021484375,-346.4804992675781,669.9049072265625,589.10986328125
1672829352446322200,6.544322265625,-347.26544189453125,668.634033203125,589.5762329101562
1672829352456322000,6.554322021484375,-347.8679504394531,669.9133911132812,588.6751098632812
1672829352466322200,6.564322265625,-347.9006042480469,669.0987548828125,590.134765625
1672829352476322000,6.574322021484375,-348.2245788574219,669.0892333984375,590.7083129882812
1672829352486322200,6.584322265625,-348.21038818359375,668.4669189453125,590.1527709960938
1672829352496322000,6.594322021484375,-347.11370849609375,668.7894897460938,589.715576171875
1672829352506322200,6.604322265625,-346.4885559082031,671.0060424804688,589.3641357421875
1672829352516322000,6.614322021484375,-346.82763671875,669.5621337890625,590.6981201171875
1672829352526322200,6.624322265625,-348.2392883300781,667.3388061523438,591.478271484375
1672829352536322000,6.634322021484375,-348.5941162109375,667.7811889648438,593.3302001953125
1672829352546322200,6.644322265625,-347.31890869140625,665.5901489257812,592.107177734375
1672829352556322000,6.654322021484375,-347.96173095703125,666.8399658203125,592.9293823242188
1672829352566322200,6.664322265625,-347.3433837890625,666.363037109375,593.0888671875
1672829352576322000,6.674322021484375,-349.20623779296875,665.890380859375,593.0977783203125
1672829352586322200,6.684322265625,-344.9884338378906,667.3289184570312,591.9183349609375
1672829352596322000,6.694322021484375,-346.9852294921875,665.923095703125,591.0933837890625
1672829352606322200,6.704322265625,-349.2121887207031,665.25341796875,593.4038696289062
1672829352616322000,6.714322021484375,-347.030517578125,664.4666137695312,593.1463623046875
1672829352626322200,6.724322265625,-346.8955993652344,664.6098022460938,594.0037231445312
1672829352636322000,6.734322021484375,-347.64849853515625,664.6276245117188,592.9962768554688
1672829352646322200,6.744322265625,-346.8969421386719,665.7158813476562,593.970703125
1672829352656322000,6.754322021484375,-347.1731262207031,665.108642578125,592.5525512695312
1672829352666322200,6.764322265625,-346.7209167480469,665.2564086914062,593.1236572265625
1672829352676322000,6.774322021484375,-349.7005615234375,664.446533203125,594.4313354492188
1672829352686322200,6.784322265625,-349.2293701171875,665.5571899414062,594.1124877929688
1672829352696322000,6.794322021484375,-348.9587097167969,665.2115478515625,595.8460693359375
1672829352706322200,6.804322265625,-345.36724853515625,665.3815307617188,594.9898071289062
1672829352716322000,6.814322021484375,-346.1201477050781,665.3992309570312,593.9823608398438
1672829352726322200,6.824322265625,-346.7774658203125,664.74072265625,595.5791625976562
1672829352736322000,6.834322021484375,-347.7263488769531,665.0452270507812,596.28515625
1672829352746322200,6.844322265625,-347.4058837890625,665.2103271484375,595.8504638671875
1672829352756322000,6.854322021484375,-345.0738525390625,665.68505859375,595.6992797851562
1672829352766322200,6.864322265625,-346.65692138671875,665.6641235351562,596.9873657226562
1672829352776322000,6.874322021484375,-346.9520568847656,666.7826538085938,596.2355346679688
1672829352786322200,6.884322265625,-347.2558898925781,666.787841796875,595.9473876953125
1672829352796322000,6.894322021484375,-345.85296630859375,667.8978271484375,595.631103515625
1672829352806322200,6.904322265625,-345.9923095703125,665.8536376953125,595.1174926757812
1672829352816322000,6.914322021484375,-346.9503173828125,665.360595703125,596.2779541015625
1672829352826322200,6.924322265625,-346.297119140625,666.6487426757812,594.805908203125
1672829352836322000,6.934322021484375,-346.321044921875,666.9475708007812,595.8016967773438
1672829352846322200,6.944322265625,-345.8330993652344,665.3818969726562,594.9884643554688
1672829352856322000,6.954322021484375,-347.093994140625,664.10400390625,595.8843994140625
1672829352866322200,6.964322265625,-347.25897216796875,663.78076171875,596.3241577148438
1672829352876322000,6.974322021484375,-346.1849670410156,666.1427001953125,596.6874389648438
1672829352886322200,6.984322265625,-346.00909423828125,665.84130859375,595.8355712890625
1672829352896322000,6.994322021484375,-347.71502685546875,666.7930908203125,595.6588745117188
1672829352906322200,7.004322265625,-347.8486022949219,665.5438842773438,594.8345336914062
1672829352916322000,7.014322021484375,-346.7774658203125,664.74072265625,595.5791625976562
1672829352926322200,7.024322265625,-347.4076232910156,666.6324462890625,595.8080444335938
1672829352936322000,7.034322021484375,-348.79248046875,667.275390625,595.2108154296875
1672829352946322200,7.044322265625,-349.47076416015625,667.2340698242188,597.6504516601562
1672829352956322000,7.054322021484375,-348.24920654296875,667.6925048828125,598.5014038085938
1672829352966322200,7.064322265625,-348.0571594238281,667.8773803710938,596.9174194335938
1672829352976322000,7.074322021484375,-347.4240417480469,666.3041381835938,596.5354614257812
1672829352986322200,7.084322265625,-348.98260498046875,665.5104370117188,596.8419189453125
1672829352996322000,7.094322021484375,-349.2955017089844,667.40673828125,596.7844848632812
1672829353006322200,7.104322265625,-349.1138916015625,667.9002685546875,595.6218872070312
1672829353016322000,7.114322021484375,-351.80267333984375,669.4481201171875,597.5778198242188
1672829353026322200,7.124322265625,-352.9503479003906,680.63330078125,599.25048828125
1672829353036322000,7.134322021484375,-354.0124816894531,679.5452270507812,598.275146484375
1672829353046322200,7.144322265625,-354.0124816894531,679.5452270507812,598.275146484375
1672829353056322000,7.154322021484375,-355.5275573730469,678.94140625,596.7098388671875
1672829353066322200,7.164322265625,-352.9158630371094,677.1791381835938,598.0617065429688
1672829353076322000,7.174322021484375,-356.0581970214844,685.220458984375,598.9613647460938
1672829353086322200,7.184322265625,-357.654541015625,690.5670166015625,600.3763427734375
1672829353096322000,7.194322021484375,-355.9275207519531,688.83984375,599.7149658203125
1672829353106322200,7.204322265625,-357.61016845703125,687.2782592773438,598.7520141601562
1672829353116322000,7.214322021484375,-358.0451354980469,689.5153198242188,597.2486572265625
1672829353126322200,7.224322265625,-356.48614501953125,689.9930419921875,596.9517211914062
1672829353136322000,7.234322021484375,-355.8717346191406,689.9876708984375,597.2406005859375
1672829353146322200,7.244322265625,-356.9369201660156,691.427734375,596.1898803710938
1672829353156322000,7.254322021484375,-356.29351806640625,689.703857421875,595.3817749023438
1672829353166322200,7.264322265625,-355.0832214355469,691.1029663085938,596.6353759765625
1672829353176322000,7.274322021484375,-355.505615234375,691.2931518554688,594.762451171875
1672829353186322200,7.284322265625,-355.4911193847656,693.2015991210938,593.9878540039062
1672829353196322000,7.294322021484375,-354.55487060546875,692.2553100585938,593.8750610351562
1672829353206322200,7.304322265625,-354.36993408203125,692.7512817382812,592.5689697265625
1672829353216322000,7.314322021484375,-355.9241027832031,693.8585205078125,592.5315551757812
1672829353226322200,7.324322265625,-356.1103820800781,694.4685668945312,593.8046875
1672829353236322000,7.334322021484375,-356.8871765136719,694.7852783203125,593.7930297851562
1672829353246322200,7.344322265625,-355.4521484375,694.3370971679688,592.2315063476562
1672829353256322000,7.354322021484375,-356.4995422363281,694.9994506835938,590.4861450195312
1672829353266322200,7.364322265625,-356.2117614746094,694.3499755859375,591.5112915039062
1672829353276322000,7.374322021484375,-355.7209167480469,695.9493408203125,590.3165283203125
1672829353286322200,7.384322265625,-354.3120422363281,697.6962280273438,589.6941528320312
1672829353296322000,7.394322021484375,-354.9672546386719,695.299560546875,591.3428344726562
1672829353306322200,7.404322265625,-352.303955078125,695.3146362304688,590.3450927734375
1672829353316322000,7.414322021484375,-356.1845703125,696.9002075195312,590.143310546875
1672829353326322200,7.424322265625,-354.9605407714844,695.304443359375,591.0556640625
1672829353336322000,7.434322021484375,-355.90423583984375,696.8778686523438,591.4367065429688
1672829353346322200,7.444322265625,-354.8172607421875,696.8770751953125,591.4398193359375
1672829353356322000,7.454322021484375,-356.185546875,697.6902465820312,590.1197509765625
1672829353366322200,7.464322265625,-355.0635986328125,696.6079711914062,588.7197265625
1672829353376322000,7.474322021484375,-354.5195617675781,696.39306640625,592.0292358398438
1672829353386322200,7.484322265625,-352.4319763183594,695.0184326171875,589.2052001953125
1672829353396322000,7.494322021484375,-354.484619140625,695.3114624023438,590.6261596679688
1672829353406322200,7.504322265625,-355.27783203125,695.2998046875,591.3419799804688
1672829353416322000,7.514322021484375,-352.7591247558594,694.848388671875,589.927001953125
1672829353426322200,7.524322265625,-353.0674133300781,692.9524536132812,589.9827270507812
1672829353436322000,7.534322021484375,-352.886962890625,694.3941040039062,588.7918701171875
1672829353446322200,7.544322265625,-352.27679443359375,692.3296508789062,589.4293823242188
1672829353456322000,7.554322021484375,-352.4564514160156,695.791259765625,590.1868896484375
1672829353466322200,7.564322265625,-353.2210388183594,694.377197265625,589.7962646484375
1672829353476322000,7.574322021484375,-352.7568359375,692.9522094726562,589.9835815429688
1672829353486322200,7.584322265625,-353.2210388183594,694.377197265625,589.7962646484375
1672829353496322000,7.594322021484375,-353.8235778808594,695.656494140625,588.8951416015625
1672829353506322200,7.604322265625,-351.6708068847656,693.7415161132812,589.963134765625
1672829353516322000,7.614322021484375,-351.98193359375,694.2157592773438,589.9480590820312
1672829353526322200,7.624322265625,-350.90411376953125,693.41748046875,590.4056396484375
1672829353536322000,7.634322021484375,-351.4061279296875,692.7588500976562,592.0028686523438
1672829353546322200,7.644322265625,-352.4360046386719,692.8013916015625,589.5584106445312
1672829353556322000,7.654322021484375,-353.7376708984375,694.65673828125,591.939697265625
1672829353566322200,7.664322265625,-353.0962219238281,694.512939453125,591.0845336914062
1672829353576322000,7.674322021484375,-352.43658447265625,693.275390625,589.5442504882812
1672829353586322200,7.684322265625,-351.6704406738281,693.4254760742188,589.9725952148438
1672829353596322000,7.694322021484375,-354.0354919433594,692.4522094726562,591.5740356445312
1672829353606322200,7.704322265625,-351.97369384765625,692.9566040039062,589.6986694335938
1672829353616322000,7.714322021484375,-352.7765197753906,695.3101196289062,590.6309814453125
1672829353626322200,7.724322265625,-354.05535888671875,694.9680786132812,592.2166137695312
1672829353636322000,7.734322021484375,-353.1193542480469,694.1797485351562,592.0991821289062
1672829353646322200,7.744322265625,-354.52301025390625,693.701904296875,592.3965454101562
1672829353656322000,7.754322021484375,-353.9192810058594,694.1632080078125,593.1022338867188
1672829353666322200,7.764322265625,-353.3175354003906,693.5159912109375,593.9845581054688
1672829353676322000,7.774322021484375,-354.6026916503906,692.8529663085938,595.8668212890625
1672829353686322200,7.784322265625,-354.8690185546875,692.4111328125,594.01318359375
1672829353696322000,7.794322021484375,-354.2447204589844,692.571044921875,593.8665161132812
1672829353706322200,7.804322265625,-353.4559020996094,690.6817016601562,593.4944458007812
1672829353716322000,7.814322021484375,-352.544189453125,690.5082397460938,594.363525390625
1672829353726322200,7.824322265625,-352.3863220214844,691.1426391601562,594.2014770507812
1672829353736322000,7.834322021484375,-352.0919494628906,690.6561279296875,594.9345703125
1672829353746322200,7.844322265625,-354.40179443359375,691.3046264648438,594.0474853515625
1672829353756322000,7.854322021484375,-353.8082275390625,689.0699462890625,595.4076538085938
1672829353766322200,7.864322265625,-354.2732238769531,691.1268920898438,595.2014770507812
1672829353776322000,7.874322021484375,-353.811279296875,691.59814453125,595.3322143554688
1672829353786322200,7.884322265625,-353.0734558105469,690.1459350585938,597.1002197265625
1672829353796322000,7.894322021484375,-353.18701171875,691.758056640625,595.1857299804688
1672829353806322200,7.904322265625,-351.9956359863281,689.3477172851562,597.5576782226562
1672829353816322000,7.914322021484375,-352.9092712402344,691.1012573242188,596.6415405273438
1672829353826322200,7.924322265625,-351.9438781738281,688.2785034179688,595.4365234375
1672829353836322000,7.934322021484375,-350.76495361328125,690.603515625,597.954345703125
1672829353846322200,7.944322265625,-350.1385803222656,689.025390625,597.859619140625
1672829353856322000,7.954322021484375,-350.9140319824219,688.2359008789062,597.8810424804688
1672829353866322200,7.964322265625,-350.9144287109375,688.5519409179688,597.87158203125
1672829353876322000,7.974322021484375,-352.15887451171875,687.6024169921875,598.0399780273438
1672829353886322200,7.984322265625,-351.8263244628906,688.8833618164062,596.9979248046875
1672829353896322000,7.994322021484375,-350.4703369140625,687.1123046875,598.9205932617188
1672829353906322200,8.004322265625,-352.94256591796875,688.072021484375,598.310791015625
1672829353916322000,8.014322021484375,-352.6366271972656,686.3287963867188,598.6508178710938
1672829353926322200,8.024322265625,-352.99334716796875,688.351318359375,600.4555053710938
1672829353936322000,8.034322021484375,-352.3817138671875,687.8695068359375,600.9022827148438
1672829353946322200,8.044322265625,-352.5674743652344,688.0054321289062,602.1895751953125
1672829353956322000,8.054322021484374,-348.2176208496094,686.4220581054688,602.2490234375
1672829353966322200,8.064322265625,-350.55865478515625,687.8385620117188,602.6307983398438
1672829353976322000,8.074322021484376,-350.5341796875,687.065673828125,601.6491088867188
1672829353986322200,8.084322265625,-349.6157531738281,686.8970947265625,602.23095703125
1672829353996322000,8.094322021484375,-351.19073486328125,685.7750854492188,603.264892578125
1672829354006322200,8.104322265625,-351.2049560546875,686.3972778320312,603.8204345703125
1672829354016322000,8.114322021484375,-349.9529724121094,686.7197265625,603.3836669921875
1672829354026322200,8.124322265625,-350.4046325683594,686.0978393554688,602.8268432617188
1672829354036322000,8.134322021484374,-349.492919921875,685.9244384765625,603.69580078125
1672829354046322200,8.144322265625,-351.1739501953125,685.787353515625,602.5468139648438
1672829354056322000,8.154322021484376,-348.4014892578125,687.8246459960938,603.3550415039062
1672829354066322200,8.164322265625,-349.6689147949219,686.3837890625,604.5428466796875
1672829354076322000,8.174322021484375,-352.58868408203125,686.0921630859375,603.2515258789062
1672829354086322200,8.184322265625,-352.65826416015625,685.2505493164062,606.2908325195312
1672829354096322000,8.194322021484375,-352.01495361328125,686.3733520507812,605.25439453125
1672829354106322200,8.204322265625,-351.40533447265625,684.782958984375,605.8776245117188
1672829354116322000,8.214322021484374,-353.1590270996094,680.7971801757812,608.144775390625
1672829354126322200,8.224322265625,-351.7266540527344,682.561279296875,606.5172119140625
1672829354136322000,8.234322021484376,-351.59173583984375,682.7044677734375,607.3745727539062
1672829354146322200,8.244322265625,-350.0401306152344,680.962646484375,607.574462890625
1672829354156322000,8.254322021484375,-349.7667541503906,681.0934448242188,609.1504516601562
1672829354166322200,8.264322265625,-349.5743103027344,680.9622802734375,607.5758056640625
1672829354176322000,8.274322021484375,-349.2512512207031,681.761962890625,606.9786987304688
1672829354186322200,8.284322265625,-347.4326171875,679.8300170898438,609.0510864257812
1672829354196322000,8.294322021484374,-350.38433837890625,680.9383544921875,609.0097045898438
1672829354206322200,8.304322265625,-349.10394287109375,680.0162963867188,607.4617919921875
1672829354216322000,8.314322021484376,-349.46209716796875,680.4561767578125,609.4573364257812
1672829354226322200,8.324322265625,-349.1442565917969,679.9868774414062,609.1851806640625
1672829354236322000,8.334322021484375,-348.02703857421875,680.0081176757812,607.8956909179688
1672829354246322200,8.344322265625,-350.0565490722656,680.6343383789062,608.3019409179688
1672829354256322000,8.354322021484375,-346.3748779296875,679.01708984375,610.3701782226562
1672829354266322200,8.364322265625,-347.46014404296875,677.5957641601562,610.4095458984375
1672829354276322000,8.374322021484375,-349.6753845214844,678.3580322265625,612.1032104492188
1672829354286322200,8.384322265625,-347.2881774902344,680.4545288085938,609.4635009765625
1672829354296322000,8.394322021484374,-347.7884521484375,678.373779296875,611.1030883789062
1672829354306322200,8.404322265625,-346.6951599121094,678.6939086914062,610.8095703125
1672829354316322000,8.414322021484375,-347.4937438964844,677.5712280273438,611.8456420898438
1672829354326322200,8.424322265625,-347.3362731933594,678.5216064453125,611.6742553710938
1672829354336322000,8.434322021484375,-347.6112976074219,676.96630859375,610.2843627929688
1672829354346322200,8.444322265625,-346.99017333984375,676.9658203125,610.2861328125
1672829354356322000,8.454322021484375,-346.38897705078125,676.7926025390625,611.1541748046875
1672829354366322200,8.464322265625,-349.05194091796875,676.4614868164062,612.1615600585938
1672829354376322000,8.474322021484374,-348.1392822265625,675.4979858398438,613.0540161132812
1672829354386322200,8.484322265625,-345.64385986328125,674.8713989257812,612.6491088867188
1672829354396322000,8.494322021484376,-347.2110900878906,675.6527709960938,613.1956176757812
1672829354406322200,8.504322265625,-346.4629211425781,676.7386474609375,614.313720703125
1672829354416322000,8.514322021484375,-344.7575988769531,676.2608642578125,614.4761962890625
1672829354426322200,8.524322265625,-346.13323974609375,674.8545532226562,613.653076171875
1672829354436322000,8.534322021484375,-344.7442321777344,673.58203125,614.1255493164062
1672829354446322200,8.544322265625,-344.141845703125,675.1493530273438,614.7982177734375
1672829354456322000,8.554322021484374,-344.2872619628906,675.3148803710938,614.3623046875
1672829354466322200,8.564322265625,-343.5297546386719,671.5048217773438,615.48291015625
1672829354476322000,8.574322021484376,-344.7525939941406,672.152587890625,614.5988159179688
1672829354486322200,8.584322265625,-343.96466064453125,673.7418823242188,613.9794311523438
1672829354496322000,8.594322021484375,-343.2281799316406,673.3958740234375,615.7144165039062
1672829354506322200,8.604322265625,-342.1344909667969,673.39990234375,615.4302978515625
1672829354516322000,8.614322021484375,-343.6717834472656,671.6727905273438,614.9032592773438
1672829354526322200,8.624322265625,-342.6025390625,672.4497680664062,615.600830078125
1672829354536322000,8.634322021484374,-341.3951416015625,670.6837158203125,617.2359619140625
1672829354546322200,8.644322265625,-341.2272033691406,671.325439453125,616.6431274414062
1672829354556322000,8.654322021484376,-341.3615417480469,670.708251953125,615.7998657226562
1672829354566322200,8.664322265625,-340.4427185058594,670.2236328125,616.3910522460938
1672829354576322000,8.674322021484375,-340.44903564453125,669.9027099609375,616.687744140625
1672829354586322200,8.684322265625,-341.6871643066406,669.2741088867188,616.5593872070312
1672829354596322000,8.694322021484375,-340.4635314941406,667.9942626953125,617.4623413085938
1672829354606322200,8.704322265625,-341.0824279785156,668.9453125,617.2886962890625
1672829354616322000,8.714322021484374,-338.6130065917969,667.5090942382812,618.05615234375
1672829354626322200,8.724322265625,-336.7660217285156,667.1793212890625,618.7889404296875
1672829354636322000,8.734322021484376,-335.5020751953125,665.9290771484375,617.9684448242188
1672829354646322200,8.744322265625,-335.9270324707031,665.4848022460938,616.2579956054688
1672829354656322000,8.754322021484375,-335.0370788574219,663.8720703125,618.1747436523438
1672829354666322200,8.764322265625,-332.900390625,666.8480834960938,619.5274047851562
1672829354676322000,8.774322021484375,-332.5604248046875,664.8132934570312,618.440673828125
1672829354686322200,8.784322265625,-332.39227294921875,665.2970581054688,617.8525390625
1672829354696322000,8.794322021484374,-331.59906005859375,665.3087158203125,617.1366577148438
1672829354706322200,8.804322265625,-331.1474609375,665.9306030273438,617.6935424804688
1672829354716322000,8.814322021484376,-331.883544921875,665.9606323242188,615.9680786132812
1672829354726322200,8.824322265625,-329.4357604980469,665.7737426757812,617.5595703125
1672829354736322000,8.834322021484375,-330.5302429199219,666.4016723632812,617.8248901367188
1672829354746322200,8.844322265625,-327.2698974609375,666.8732299804688,617.8199462890625
1672829354756322000,8.854322021484375,-327.9032897949219,665.9158935546875,618.4208374023438
1672829354766322200,8.864322265625,-328.9486083984375,664.8400268554688,616.7274780273438
1672829354776322000,8.874322021484375,-327.99560546875,663.9059448242188,615.8967895507812
1672829354786322200,8.884322265625,-326.4622802734375,666.1046752929688,616.5531616210938
1672829354796322000,8.894322021484374,-328.7659912109375,667.2321166992188,615.3648071289062
1672829354806322200,8.904322265625,-328.0201110839844,664.6788330078125,616.8784790039062
1672829354816322000,8.914322021484375,-326.8039245605469,664.0262451171875,618.0496826171875
1672829354826322200,8.924322265625,-326.75152587890625,665.1715698242188,615.7189331054688
1672829354836322000,8.934322021484375,-326.3172607421875,666.2551879882812,616.979736328125
1672829354846322200,8.944322265625,-326.7360534667969,666.2899169921875,614.9678955078125
1672829354856322000,8.954322021484375,-327.67669677734375,665.335205078125,615.4243774414062
1672829354866322200,8.964322265625,-327.0705261230469,666.5889892578125,615.9628295898438
1672829354876322000,8.974322021484374,-325.0777893066406,665.7777099609375,617.1410522460938
1672829354886322200,8.984322265625,-328.0285339355469,666.0960083007812,617.1232299804688
1672829354896322000,8.994322021484376,-326.1429748535156,667.2178344726562,616.0902709960938
1672829354906322200,9.004322265625,-325.8415222167969,666.420166015625,616.5455322265625
1672829354916322000,9.014322021484375,-328.7650146484375,666.4420776367188,615.3883666992188
1672829354926322200,9.024322265625,-325.8247375488281,666.4324340820312,615.8275146484375
1672829354936322000,9.034322021484375,-326.7857971191406,668.4677124023438,616.912353515625
1672829354946322200,9.044322265625,-326.76092529296875,667.3788452148438,615.9401245117188
1672829354956322000,9.054322021484374,-325.8323974609375,667.2175903320312,616.0911865234375
1672829354966322200,9.064322265625,-324.4797058105469,668.1327514648438,617.9336547851562
1672829354976322000,9.074322021484376,-326.33001708984375,668.4599609375,617.3445434570312
1672829354986322200,9.084322265625,-326.4552917480469,668.6401977539062,616.0469360351562
1672829354996322000,9.094322021484375,-325.2574462890625,669.2393798828125,617.8984375
1672829355006322200,9.104322265625,-327.0963439941406,668.4679565429688,616.9114990234375
1672829355016322000,9.114322021484375,-325.9864501953125,668.9583129882812,615.8952026367188
1672829355026322200,9.124322265625,-327.08148193359375,670.060302734375,616.1463012695312
1672829355036322000,9.134322021484374,-326.46630859375,669.4229125976562,616.4541625976562
1672829355046322200,9.144322265625,-327.1137390136719,668.9297485351562,617.6154174804688
1672829355056322000,9.154322021484376,-327.24176025390625,668.6334838867188,616.4755249023438
1672829355066322200,9.164322265625,-326.3155212402344,670.3683471679688,616.5699462890625
1672829355076322000,9.174322021484375,-326.1553649902344,669.106689453125,616.4644165039062
1672829355086322200,9.184322265625,-326.17926025390625,669.405517578125,617.4603271484375
1672829355096322000,9.194322021484375,-326.0093994140625,668.4671020507812,616.91455078125
1672829355106322200,9.204322265625,-326.1705322265625,670.5189208984375,616.9964599609375
1672829355116322000,9.214322021484374,-327.4170227050781,668.4608154296875,617.3414916992188
1672829355126322200,9.224322265625,-325.71832275390625,670.666748046875,617.5675048828125
1672829355136322000,9.234322021484376,-326.4820556640625,671.3092041015625,616.9720458984375
1672829355146322200,9.244322265625,-325.39276123046875,669.4122314453125,617.0316772460938
1672829355156322000,9.254322021484375,-326.9048767089844,669.1268920898438,615.3134155273438
1672829355166322200,9.264322265625,-326.0107421875,669.5731811523438,616.881591796875
1672829355176322000,9.274322021484375,-327.24810791015625,668.3125610351562,616.7722778320312
1672829355186322200,9.284322265625,-325.193603515625,669.2860107421875,615.1698608398438
1672829355196322000,9.294322021484374,-326.7817687988281,670.684814453125,616.5591430664062
1672829355206322200,9.304322265625,-326.0294494628906,671.1409912109375,617.5524291992188
1672829355216322000,9.314322021484376,-326.82305908203125,671.4454345703125,618.2589111328125
1672829355226322200,9.324322265625,-326.3797607421875,670.6378173828125,619.2890625
1672829355236322000,9.334322021484375,-325.9012451171875,671.279296875,618.6971435546875
1672829355246322200,9.344322265625,-327.4566650390625,670.6460571289062,618.855224609375
1672829355256322000,9.354322021484375,-327.1077880859375,669.566650390625,617.3093872070312
1672829355266322200,9.364322265625,-327.2685546875,671.302490234375,617.4006958007812
1672829355276322000,9.374322021484375,-324.9677429199219,672.5451049804688,618.5184326171875
1672829355286322200,9.384322265625,-326.33367919921875,671.4622192382812,617.2550048828125
1672829355296322000,9.394322021484374,-327.8995361328125,671.1375732421875,617.8344116210938
1672829355306322200,9.404322265625,-325.3111267089844,671.8887329101562,619.972412109375
1672829355316322000,9.414322021484375,-326.9415588378906,671.6304931640625,616.674072265625
1672829355326322200,9.424322265625,-327.29034423828125,669.8632202148438,618.4483642578125
1672829355336322000,9.434322021484375,-324.8075256347656,671.2833251953125,618.4129638671875
1672829355346322200,9.444322265625,-327.29168701171875,670.9692993164062,618.4153442382812
1672829355356322000,9.454322021484375,-326.02850341796875,670.3509521484375,617.5760498046875
1672829355366322200,9.464322265625,-325.26983642578125,671.1281127929688,618.272705078125
1672829355376322000,9.474322021484374,-326.357177734375,671.445068359375,618.26025390625
1672829355386322200,9.484322265625,-325.9251403808594,671.578125,619.6929321289062
1672829355396322000,9.494322021484376,-327.4522399902344,672.5470581054688,618.5114135742188
1672829355406322200,9.504322265625,-326.07745361328125,671.896728515625,619.5394897460938
1672829355416322000,9.514322021484375,-328.0755920410156,671.596923828125,618.6815185546875
1672829355426322200,9.524322265625,-328.0526428222656,672.088134765625,617.6621704101562
1672829355436322000,9.534322021484375,-327.3102111816406,672.3790893554688,619.0910034179688
1672829355446322200,9.544322265625,-329.65167236328125,674.1116333007812,619.46337890625
1672829355456322000,9.554322021484374,-328.27166748046875,674.7302856445312,620.16650390625
1672829355466322200,9.564322265625,-329.65167236328125,674.1116333007812,619.46337890625
1672829355476322000,9.574322021484376,-330.6382751464844,675.0211181640625,621.7301635742188
1672829355486322200,9.584322265625,-332.3163146972656,675.2025146484375,620.4281616210938
1672829355496322000,9.594322021484375,-332.0225524902344,675.1900024414062,621.1470947265625
1672829355506322200,9.604322265625,-335.3984069824219,683.965087890625,625.32568359375
1672829355516322000,9.614322021484375,-336.5044860839844,685.8497924804688,625.9840698242188
1672829355526322200,9.624322265625,-336.6532287597656,686.0128173828125,625.691650390625
1672829355536322000,9.634322021484374,-336.9819641113281,687.10693359375,626.3759155273438
1672829355546322200,9.644322265625,-337.91644287109375,686.631103515625,626.5309448242188
1672829355556322000,9.654322021484376,-338.35302734375,687.443603515625,625.2135620117188
1672829355566322200,9.664322265625,-337.9460144042969,688.8236083984375,627.6138916015625
1672829355576322000,9.674322021484375,-339.2737731933594,689.50830078125,624.5752563476562
1672829355586322200,9.684322265625,-339.9161071777344,687.5953979492188,625.6353149414062
1672829355596322000,9.694322021484375,-341.7919006347656,689.4856567382812,626.0042724609375
1672829355606322200,9.704322265625,-341.3141174316406,690.7591552734375,625.3934936523438
1672829355616322000,9.714322021484374,-341.7523498535156,690.1470947265625,624.2621459960938
1672829355626322200,9.724322265625,-342.53680419921875,691.2489013671875,624.5140991210938
1672829355636322000,9.734322021484376,-343.8100891113281,691.8598022460938,625.7842407226562
1672829355646322200,9.744322265625,-344.560302734375,689.6654052734375,624.8428344726562
1672829355656322000,9.754322021484375,-343.9463806152344,692.8226318359375,624.8939208984375
1672829355666322200,9.764322265625,-346.1251220703125,691.2393798828125,625.2221069335938
1672829355676322000,9.774322021484375,-347.4868469238281,692.2154541015625,623.6101684570312
1672829355686322200,9.784322265625,-348.1008605957031,691.9048461914062,623.33056640625
1672829355696322000,9.794322021484374,-346.8600769042969,695.8566284179688,623.0726928710938
1672829355706322200,9.804322265625,-349.4830627441406,695.8709716796875,622.3471069335938
1672829355716322000,9.814322021484376,-348.68255615234375,695.4134521484375,621.358154296875
1672829355726322200,9.824322265625,-349.79400634765625,696.1871337890625,622.3367919921875
1672829355736322000,9.834322021484375,-349.32098388671875,698.5643310546875,621.8366088867188
1672829355746322200,9.844322265625,-350.691650390625,698.5850219726562,620.6837768554688
1672829355756322000,9.854322021484375,-349.8624267578125,699.4137573242188,618.3645629882812
1672829355766322200,9.864322265625,-351.59088134765625,699.558349609375,619.2167358398438
1672829355776322000,9.874322021484375,-350.38067626953125,698.268798828125,620.6940307617188
1672829355786322200,9.884322265625,-352.04443359375,700.5166015625,618.6127319335938
1672829355796322000,9.894322021484374,-352.6864929199219,701.1343994140625,619.4536743164062
1672829355806322200,9.904322265625,-352.97222900390625,700.045654296875,618.4805297851562
1672829355816322000,9.914322021484375,-353.8852844238281,701.3252563476562,617.5785522460938
1672829355826322200,9.924322265625,-354.486083984375,701.182373046875,616.7199096679688
1672829355836322000,9.934322021484375,-354.6142883300781,701.044189453125,615.5752563476562
1672829355846322200,9.944322265625,-353.6519470214844,700.74951171875,614.2948608398438
1672829355856322000,9.954322021484375,-355.0859680175781,703.0962524414062,615.6563110351562
1672829355866322200,9.964322265625,-353.0406188964844,703.2722778320312,614.5083618164062
1672829355876322000,9.974322021484374,-354.7412414550781,702.646484375,614.2351684570312
1672829355886322200,9.984322265625,-353.64141845703125,703.1295166015625,613.649658203125
1672829355896322000,9.994322021484376,-355.3684997558594,702.1680297851562,614.5347900390625
1672829355906322200,10.004322265625,-355.5128479003906,704.2321166992188,613.8985595703125
1672829355916322000,10.014322021484375,-354.4185791015625,703.7621459960938,613.6286010742188
1672829355926322200,10.024322265625,-355.6294250488281,702.8370971679688,612.3609008789062
1672829355936322000,10.034322021484375,-357.0628967285156,704.7097778320312,613.7364501953125
1672829355946322200,10.044322265625,-358.56829833984375,704.4292602539062,611.73095703125
1672829355956322000,10.054322021484374,-356.9761047363281,705.24755859375,609.9884033203125
1672829355966322200,10.064322265625,-356.5141906738281,705.71875,610.1192626953125
1672829355976322000,10.074322021484376,-356.49200439453125,706.842041015625,609.0809936523438
1672829355986322200,10.084322265625,-354.7716369628906,707.7986450195312,608.4830322265625
1672829355996322000,10.094322021484375,-355.5806884765625,706.9846801757812,609.9405517578125
1672829356006322200,10.104322265625,-356.1650390625,707.1701049804688,608.3543701171875
1672829356016322000,10.114322021484375,-355.6820068359375,706.865966796875,607.6470947265625
1672829356026322200,10.124322265625,-357.8727722167969,706.8554077148438,608.3590087890625
1672829356036322000,10.134322021484374,-355.69842529296875,706.5377197265625,608.3745727539062
1672829356046322200,10.144322265625,-356.7693786621094,707.182861328125,607.6345825195312
1672829356056322000,10.154322021484376,-356.1646728515625,706.8540649414062,608.3638305664062
1672829356066322200,10.164322265625,-356.718505859375,709.59228515625,605.26611328125
1672829356076322000,10.174322021484375,-356.1733093261719,708.4292602539062,608.6038818359375
1672829356086322200,10.184322265625,-357.548095703125,709.07958984375,607.5758056640625
1672829356096322000,10.194322021484375,-355.683349609375,707.9720458984375,607.6140747070312
1672829356106322200,10.204322265625,-357.5649108886719,709.0673217773438,608.2938842773438
1672829356116322000,10.214322021484374,-356.1665954589844,708.4341430664062,608.316650390625
1672829356126322200,10.224322265625,-357.697509765625,707.0280151367188,607.4930419921875
1672829356136322000,10.234322021484376,-358.7636413574219,709.2581787109375,606.418701171875
1672829356146322200,10.244322265625,-358.5889892578125,709.9048461914062,605.53857421875
1672829356156322000,10.254322021484375,-359.5261535644531,711.6411743164062,605.627685546875
1672829356166322200,10.264322265625,-360.4556579589844,712.5924072265625,605.4531860351562
1672829356176322000,10.274322021484375,-359.1698913574219,712.7813720703125,603.5850219726562
1672829356186322200,10.284322265625,-359.20831298828125,711.1718139648438,605.3555297851562
1672829356196322000,10.294322021484374,-358.54962158203125,710.724365234375,603.7916870117188
1672829356206322200,10.304322265625,-359.29522705078125,710.27294921875,602.51123046875
1672829356216322000,10.314322021484376,-359.4623107910156,711.6878051757812,602.899169921875
1672829356226322200,10.324322265625,-358.208251953125,710.2721557617188,602.5143432617188
1672829356236322000,10.334322021484375,-358.7185363769531,710.87255859375,604.3609619140625
1672829356246322200,10.344322265625,-358.6859130859375,711.687255859375,602.9013671875
1672829356256322000,10.354322021484375,-359.15350341796875,713.1096801757812,602.8575439453125
1672829356266322200,10.364322265625,-359.46307373046875,712.3198852539062,602.8802490234375
1672829356276322000,10.374322021484375,-360.19915771484375,712.3499145507812,601.1547241210938
1672829356286322200,10.384322265625,-360.3509216308594,712.1944580078125,601.0155029296875
1672829356296322000,10.394322021484374,-358.5211181640625,712.1685180664062,602.4568481445312
1672829356306322200,10.404322265625,-361.1374206542969,712.1876831054688,601.4440307617188
1672829356316322000,10.414322021484375,-359.7121276855469,714.2628173828125,600.09423828125
1672829356326322200,10.424322265625,-359.09002685546875,713.4722900390625,600.1195678710938
1672829356336322000,10.434322021484375,-359.8611755371094,711.895263671875,600.0208740234375
1672829356346322200,10.444322265625,-358.01507568359375,715.0442504882812,600.50634765625
1672829356356322000,10.454322021484375,-358.1729431152344,714.409912109375,600.6683349609375
1672829356366322200,10.464322265625,-357.53778076171875,713.9451904296875,600.1098022460938
1672829356376322000,10.474322021484374,-358.4605407714844,714.9013061523438,599.6480102539062
1672829356386322200,10.484322265625,-359.5364990234375,714.119384765625,599.2377319335938
1672829356396322000,10.494322021484376,-361.24920654296875,712.3777465820312,599.572021484375
1672829356406322200,10.504322265625,-363.49200439453125,716.4410400390625,602.1718139648438
1672829356416322000,10.514322021484375,-365.6174621582031,718.0595703125,599.96435546875
1672829356426322200,10.524322265625,-365.46246337890625,715.5288696289062,600.183837890625
1672829356436322000,10.534322021484375,-365.8850402832031,715.8771362304688,598.3062133789062
1672829356446322200,10.544322265625,-363.6004333496094,716.633544921875,600.1561889648438
1672829356456322000,10.554322021484374,-365.1639099121094,717.1013793945312,600.5684204101562
1672829356466322200,10.564322265625,-364.3701477050781,716.6390380859375,599.8667602539062
1672829356476322000,10.574322021484376,-364.1927795410156,715.0735473632812,599.0526733398438
1672829356486322200,10.584322265625,-364.3284606933594,715.5624389648438,598.1763916015625
1672829356496322000,10.594322021484375,-364.2113037109375,716.4833374023438,599.728271484375
1672829356506322200,10.604322265625,-363.40185546875,716.9813232421875,598.2802124023438
1672829356516322000,10.614322021484375,-366.2398376464844,716.3195190429688,600.1580810546875
1672829356526322200,10.624322265625,-364.3936462402344,716.6218872070312,600.8720703125
1672829356536322000,10.634322021484374,-365.2925109863281,717.2791137695312,599.4144287109375
1672829356546322200,10.644322265625,-363.5923767089844,715.5324096679688,599.9019165039062
1672829356556322000,10.654322021484376,-362.6244812011719,716.190673828125,598.3059692382812
1672829356566322200,10.664322265625,-363.4393005371094,714.5817260742188,600.0742797851562
1672829356576322000,10.674322021484375,-363.8853454589844,714.912841796875,599.2018432617188
1672829356586322200,10.684322265625,-361.72186279296875,715.2198486328125,599.62939453125
1672829356596322000,10.694322021484375,-363.0971374511719,713.4974975585938,598.815673828125
1672829356606322200,10.704322265625,-363.7387390136719,716.4879150390625,599.4423828125
1672829356616322000,10.714322021484374,-362.1934814453125,714.4252319335938,599.9388427734375
1672829356626322200,10.724322265625,-361.28271484375,715.0418701171875,600.7843017578125
1672829356636322000,10.734322021484376,-362.1934814453125,714.4252319335938,599.9388427734375
1672829356646322200,10.744322265625,-360.8222351074219,713.9304809570312,601.1058349609375
1672829356656322000,10.754322021484375,-362.21392822265625,717.4151611328125,600.5672607421875
1672829356666322200,10.764322265625,-361.61602783203125,719.9281616210938,601.3552856445312
1672829356676322000,10.774322021484375,-359.73797607421875,721.6770629882812,600.5906982421875
1672829356686322200,10.784322265625,-359.7863464355469,722.748779296875,602.5682373046875
1672829356696322000,10.794322021484374,-359.9558410644531,723.3711547851562,603.1233520507812
1672829356706322200,10.804322265625,-362.8722229003906,723.0819702148438,601.6883544921875
1672829356716322000,10.814322021484376,-359.1825866699219,723.2100830078125,603.2738037109375
1672829356726322200,10.824322265625,-359.63616943359375,724.1683349609375,602.6698608398438
1672829356736322000,10.834322021484375,-360.439453125,724.1492919921875,603.8165283203125
1672829356746322200,10.844322265625,-360.2938537597656,723.8258056640625,604.2572021484375
1672829356756322000,10.854322021484375,-360.73321533203125,724.1618041992188,603.0975952148438
1672829356766322200,10.864322265625,-360.77294921875,723.6583251953125,604.8349609375
1672829356776322000,10.874322021484375,-359.6493225097656,726.6890869140625,603.0252685546875
1672829356786322200,10.884322265625,-361.9622497558594,724.33056640625,602.5149536132812
1672829356796322000,10.894322021484374,-361.3521423339844,725.11279296875,602.9238891601562
1672829356806322200,10.904322265625,-359.62811279296875,723.0671997070312,602.4155883789062
1672829356816322000,10.914322021484375,-361.9635925292969,725.4366455078125,602.48193359375
1672829356826322200,10.924322265625,-359.94805908203125,725.274658203125,602.6359252929688
1672829356836322000,10.934322021484375,-360.8526916503906,725.136962890625,601.4890747070312
1672829356846322200,10.944322265625,-361.3515625,724.6387939453125,602.9380493164062
1672829356856322000,10.954322021484375,-361.6933288574219,725.4070434570312,604.2061157226562
1672829356866322200,10.964322265625,-360.25506591796875,725.1193237304688,602.4961547851562
1672829356876322000,10.974322021484374,-360.4546203613281,725.5615844726562,604.3484497070312
1672829356886322200,10.984322265625,-361.2310485839844,725.5621948242188,604.3462524414062
1672829356896322000,10.994322021484376,-360.2894287109375,725.7268676757812,603.913330078125
1672829356906322200,11.004322265625,-360.868896484375,724.6506958007812,602.2213134765625
1672829356916322000,11.014322021484375,-360.25408935546875,724.3292846679688,602.519775390625
1672829356926322200,11.024322265625,-362.6208801269531,724.778076171875,604.0787353515625
1672829356936322000,11.034322021484375,-361.37567138671875,725.0956420898438,603.9291381835938
1672829356946322200,11.044322265625,-363.201416015625,727.3386840820312,602.1345825195312
1672829356956322000,11.054322021484374,-360.587646484375,723.8383178710938,603.538330078125
1672829356966322200,11.064322265625,-359.78253173828125,725.1238403320312,602.2102661132812
1672829356976322000,11.074322021484376,-361.49859619140625,723.3797607421875,602.6881103515625
1672829356986322200,11.084322265625,-361.6742248535156,723.5231323242188,603.544677734375
1672829356996322000,11.094322021484375,-360.4297790527344,724.4727172851562,603.376220703125
1672829357006322200,11.104322265625,-359.9638977050781,724.4723510742188,603.3775024414062
1672829357016322000,11.114322021484375,-361.2310485839844,725.5621948242188,604.3462524414062
1672829357026322200,11.124322265625,-359.9621887207031,723.0502319335938,603.419921875
1672829357036322000,11.134322021484374,-360.27801513671875,724.628173828125,603.515625
1672829357046322200,11.144322265625,-360.4139404296875,725.2750244140625,602.6346435546875
1672829357056322000,11.154322021484376,-361.37469482421875,724.3056030273438,603.9527587890625
1672829357066322200,11.164322265625,-360.5885925292969,724.62841796875,603.5147705078125
1672829357076322000,11.174322021484375,-359.9739990234375,724.4649658203125,603.808349609375
1672829357086322200,11.184322265625,-359.16943359375,726.224609375,602.4661865234375
1672829357096322000,11.194322021484375,-360.4402160644531,724.7813110351562,603.7976684570312
1672829357106322200,11.204322265625,-361.5258483886719,723.6761474609375,603.8275146484375
1672829357116322000,11.214322021484374,-358.8698425292969,724.1603393554688,603.1029052734375
1672829357126322200,11.224322265625,-361.54119873046875,725.2463989257812,604.3547973632812
1672829357136322000,11.234322021484376,-361.4955139160156,726.3868408203125,602.311279296875
1672829357146322200,11.244322265625,-361.19110107421875,725.9076538085938,602.6135864257812
1672829357156322000,11.254322021484375,-359.7997131347656,725.4276733398438,602.9188842773438
1672829357166322200,11.264322265625,-360.29345703125,723.509765625,604.2666625976562
1672829357176322000,11.274322021484375,-360.3116149902344,724.6036376953125,604.9517211914062
1672829357186322200,11.284322265625,-361.6611633300781,723.8489990234375,602.960693359375
1672829357196322000,11.294322021484374,-359.35284423828125,724.4644775390625,603.8101196289062
1672829357206322200,11.304322265625,-361.3353576660156,725.1250610351562,602.2058715820312
1672829357216322000,11.314322021484376,-359.8000793457031,725.74365234375,602.909423828125
1672829357226322200,11.324322265625,-360.8621826171875,724.6556396484375,601.93408203125
1672829357236322000,11.334322021484375,-361.3420715332031,725.1201782226562,602.4931030273438
1672829357246322200,11.344322265625,-360.7023010253906,726.3984985351562,601.595458984375
1672829357256322000,11.354322021484375,-360.6005859375,726.201171875,603.8983154296875
1672829357266322200,11.364322265625,-358.89605712890625,726.3553466796875,604.0421142578125
1672829357276322000,11.374322021484375,-360.4398498535156,724.46533203125,603.8070678710938
1672829357286322200,11.384322265625,-360.5809020996094,723.84326171875,603.2510375976562
1672829357296322000,11.394322021484374,-361.3420715332031,725.1201782226562,602.4931030273438
1672829357306322200,11.404322265625,-360.58148193359375,724.3171997070312,603.2369384765625
1672829357316322000,11.414322021484375,-359.822265625,724.6204223632812,603.9476928710938
1672829357326322200,11.424322265625,-360.2535400390625,723.8552856445312,602.5338745117188
1672829357336322000,11.434322021484375,-359.36187744140625,726.355712890625,604.040771484375
1672829357346322200,11.444322265625,-360.8765869140625,725.4358520507812,602.4849853515625
1672829357356322000,11.454322021484375,-359.8054504394531,724.6326904296875,603.2296752929688
1672829357366322200,11.464322265625,-360.3827209472656,724.5070190429688,601.36572265625
1672829357376322000,11.474322021484374,-360.4071960449219,725.2799072265625,602.347412109375
1672829357386322200,11.484322265625,-362.43853759765625,724.6395874023438,602.9349365234375
1672829357396322000,11.494322021484376,-361.8290100097656,725.8958740234375,603.329833984375
1672829357406322200,11.504322265625,-362.24609375,724.5084228515625,601.3604125976562
1672829357416322000,11.514322021484375,-360.4559631347656,726.6676635742188,604.3154907226562
1672829357426322200,11.524322265625,-361.2220153808594,723.6709594726562,604.1156616210938
1672829357436322000,11.534322021484375,-360.2894287109375,725.7268676757812,603.913330078125
1672829357446322200,11.544322265625,-361.1772766113281,725.6014404296875,602.048583984375
1672829357456322000,11.554322021484374,-358.7278747558594,726.839111328125,603.4539794921875
1672829357466322200,11.564322265625,-360.8924255371094,724.633544921875,603.2265625
1672829357476322000,11.574322021484376,-359.78253173828125,725.1238403320312,602.2102661132812
1672829357486322200,11.584322265625,-360.7513732910156,725.255615234375,603.7825927734375
1672829357496322000,11.594322021484375,-363.34112548828125,725.6104736328125,601.611572265625
1672829357506322200,11.604322265625,-361.2004089355469,725.2682495117188,603.0632934570312
1672829357516322000,11.614322021484375,-360.4324645996094,726.684814453125,603.3102416992188
1672829357526322200,11.624322265625,-360.8685302734375,724.3346557617188,602.2307739257812
1672829357536322000,11.634322021484374,-360.2641906738281,724.3218994140625,602.9505615234375
1672829357546322200,11.644322265625,-360.8679504394531,723.8606567382812,602.244873046875
1672829357556322000,11.654322021484376,-359.9488220214844,725.9066772460938,602.6170654296875
1672829357566322200,11.664322265625,-360.73992919921875,724.1569213867188,603.384765625
1672829357576322000,11.674322021484375,-360.2785949707031,725.1021118164062,603.50146484375
1672829357586322200,11.684322265625,-360.5596923828125,725.7565307617188,602.189208984375
1672829357596322000,11.694322021484375,-360.4234313964844,724.7935791015625,603.0796508789062
1672829357606322200,11.704322265625,-359.6063232421875,724.5064086914062,601.367919921875
1672829357616322000,11.714322021484374,-359.6724548339844,726.35595703125,604.0399169921875
1672829357626322200,11.724322265625,-359.8796691894531,727.5833740234375,606.1558837890625
1672829357636322000,11.734322021484376,-359.9047546386719,734.3655395507812,606.6712036132812
1672829357646322200,11.744322265625,-360.3948669433594,734.9807739257812,607.65625
1672829357656322000,11.754322021484375,-360.07403564453125,734.8298950195312,607.2310180664062
1672829357666322200,11.764322265625,-359.8095703125,734.0052490234375,609.2660522460938
1672829357676322000,11.774322021484375,-360.054931640625,732.9459838867188,606.5695190429688
1672829357686322200,11.784322265625,-359.76654052734375,731.822509765625,607.6087646484375
1672829357696322000,11.794322021484374,-355.9121398925781,732.4320068359375,608.7496948242188
1672829357706322200,11.804322265625,-356.80206298828125,734.0447387695312,606.8330688476562
1672829357716322000,11.814322021484376,-357.30072021484375,733.3884887695312,608.2866821289062
1672829357726322200,11.824322265625,-353.7482604980469,732.4229736328125,609.1867065429688
1672829357736322000,11.834322021484375,-353.8033447265625,733.48974609375,611.4515380859375
1672829357746322200,11.844322265625,-354.3330078125,732.9244384765625,607.5911865234375
1672829357756322000,11.854322021484375,-354.17547607421875,733.8748779296875,607.4196166992188
1672829357766322200,11.864322265625,-356.41387939453125,734.303955078125,610.1278686523438
1672829357776322000,11.874322021484375,-357.097900390625,739.0030517578125,612.4260864257812
1672829357786322200,11.884322265625,-359.6007995605469,746.3110961914062,619.2347412109375
1672829357796322000,11.894322021484374,-365.70098876953125,753.1732177734375,633.7981567382812
1672829357806322200,11.904322265625,-384.7237548828125,758.167236328125,656.5630493164062
1672829357816322000,11.914322021484375,-423.499755859375,761.2752075195312,707.3202514648438
1672829357826322200,11.924322265625,-449.4070129394531,759.796875,739.4458618164062
1672829357836322000,11.934322021484375,-451.8617248535156,760.6559448242188,744.7245483398438
1672829357846322200,11.944322265625,-452.82183837890625,761.9010620117188,745.8330688476562
1672829357856322000,11.954322021484375,-458.05322265625,764.1991577148438,750.1997680664062
1672829357866322200,11.964322265625,-458.9673767089844,764.0990600585938,756.0855712890625
1672829357876322000,11.974322021484374,-458.8395690917969,764.5534057617188,757.2207641601562
1672829357886322200,11.984322265625,-459.933837890625,765.0233764648438,757.49072265625
1672829357896322000,11.994322021484376,-459.94659423828125,767.2281494140625,757.85546875
1672829357906322200,12.004322265625,-459.0578308105469,766.5634765625,759.7439575195312
1672829357916322000,12.014322021484375,-459.81646728515625,765.7863159179688,759.04736328125
1672829357926322200,12.024322265625,-458.8831481933594,767.2100830078125,758.8638916015625
1672829357936322000,12.034322021484375,-459.3452453613281,766.8969116210938,758.7283935546875
1672829357946322200,12.044322265625,-460.2461242675781,766.4456787109375,757.4474487304688
1672829357956322000,12.054322021484374,-459.3683776855469,766.563720703125,759.7430419921875
1672829357966322200,12.064322265625,-458.888916015625,766.4151611328125,759.1747436523438
1672829357976322000,12.074322021484376,-459.835205078125,767.3541870117188,759.7182006835938
1672829357986322200,12.084322265625,-458.4234313964844,766.7308349609375,759.1665649414062
1672829357996322000,12.094322021484375,-459.9664611816406,769.7440795898438,758.4981079101562
1672829358006322200,12.104322265625,-459.05743408203125,766.2474975585938,759.75341796875
1672829358016322000,12.114322021484375,-456.73309326171875,767.50732421875,759.865966796875
1672829358026322200,12.124322265625,-460.3617248535156,767.4683227539062,762.2971801757812
1672829358036322000,12.134322021484374,-459.4335632324219,767.6231689453125,762.438720703125
1672829358046322200,12.144322265625,-460.93798828125,766.5526733398438,760.4567260742188
1672829358056322000,12.154322021484376,-461.10223388671875,765.5973510742188,760.9154663085938
1672829358066322200,12.164322265625,-460.8949890136719,764.3699340820312,758.7994384765625
1672829358076322000,12.174322021484375,-462.7727966308594,765.151611328125,759.3450317382812
1672829358086322200,12.184322265625,-458.2686462402344,764.3580932617188,759.38134765625
1672829358096322000,12.194322021484375,-459.3555908203125,764.35888671875,759.3782348632812
1672829358106322200,12.204322265625,-459.9597473144531,764.2136840820312,758.6631469726562
1672829358116322000,12.214322021484374,-460.12127685546875,766.58154296875,758.735595703125
1672829358126322200,12.224322265625,-458.44482421875,764.9755859375,760.2236938476562
1672829358136322000,12.234322021484376,-458.8798828125,764.52392578125,758.944091796875
1672829358146322200,12.244322265625,-460.8858642578125,765.1673583984375,758.3450317382812
1672829358156322000,12.254322021484375,-458.9024353027344,763.7167358398438,759.9729614257812
1672829358166322200,12.264322265625,-458.2864074707031,765.1359252929688,760.0758666992188
1672829358176322000,12.274322021484375,-460.2942199707031,764.5127563476562,759.658203125
1672829358186322200,12.284322265625,-460.9343566894531,763.5504760742188,760.5463256835938
1672829358196322000,12.294322021484374,-460.9248352050781,764.0318603515625,760.101318359375
1672829358206322200,12.304322265625,-459.8540954589844,763.544677734375,760.8366088867188
1672829358216322000,12.314322021484376,-460.28472900390625,764.9942016601562,759.2131958007812
1672829358226322200,12.324322265625,-460.92388916015625,763.2418212890625,760.1249389648438
1672829358236322000,12.334322021484375,-460.77349853515625,764.5032958984375,760.2312622070312
1672829358246322200,12.344322265625,-460.1461181640625,762.1351318359375,760.1600952148438
1672829358256322000,12.354322021484375,-459.5227966308594,763.085205078125,759.9900512695312
1672829358266322200,12.364322265625,-460.0152282714844,765.5964965820312,760.9185180664062
1672829358276322000,12.374322021484375,-461.02935791015625,763.7527465820312,757.9561767578125
1672829358286322200,12.384322265625,-460.4052429199219,764.0707397460938,757.804931640625
1672829358296322000,12.394322021484374,-459.36431884765625,763.2454833984375,759.8421020507812
1672829358306322200,12.404322265625,-459.8160705566406,765.4703369140625,759.0567626953125
1672829358316322000,12.414322021484375,-457.95135498046875,764.36279296875,759.0950317382812
1672829358326322200,12.424322265625,-457.76763916015625,763.1182250976562,757.9842529296875
1672829358336322000,12.434322021484375,-459.31768798828125,763.5958251953125,757.8221435546875
1672829358346322200,12.444322265625,-457.925537109375,762.4838256835938,758.1463623046875
1672829358356322000,12.454322021484375,-457.9096984863281,763.2861328125,757.4047241210938
1672829358366322200,12.464322265625,-457.3193664550781,763.7376098632812,758.684814453125
1672829358376322000,12.474322021484374,-459.0148010253906,764.3807373046875,758.0867309570312
1672829358386322200,12.484322265625,-458.2276306152344,761.06689453125,757.9006958007812
1672829358396322000,12.494322021484376,-457.7838439941406,762.6319580078125,758.7164916992188
1672829358406322200,12.504322265625,-456.948974609375,761.5669555664062,756.310302734375
1672829358416322000,12.514322021484375,-459.14703369140625,762.0254516601562,757.2952880859375
1672829358426322200,12.524322265625,-456.3474426269531,761.0776977539062,757.1879272460938
1672829358436322000,12.534322021484375,-459.14703369140625,762.0254516601562,757.2952880859375
1672829358446322200,12.544322265625,-458.3384704589844,760.4668579101562,756.0521240234375
1672829358456322000,12.554322021484374,-460.05645751953125,760.3027954101562,756.4828491210938
1672829358466322200,12.564322265625,-459.4614562988281,759.6505737304688,757.65234375
1672829358476322000,12.574322021484376,-459.75164794921875,759.507568359375,756.7946166992188
1672829358486322200,12.584322265625,-459.1383972167969,760.4502563476562,757.05517578125
1672829358496322000,12.594322021484375,-457.8526611328125,760.6392211914062,755.1870727539062
1672829358506322200,12.604322265625,-458.8412780761719,760.440185546875,757.6305541992188
1672829358516322000,12.614322021484375,-458.975830078125,759.9810180664062,756.7826538085938
1672829358526322200,12.624322265625,-458.0155334472656,758.577880859375,755.6787719726562
1672829358536322000,12.634322021484374,-459.142822265625,758.5491943359375,757.3989868164062
1672829358546322200,12.644322265625,-458.9681396484375,759.1958618164062,756.5189819335938
1672829358556322000,12.654322021484376,-461.92657470703125,760.29931640625,756.7648315429688
1672829358566322200,12.664322265625,-459.9125061035156,758.5547485351562,757.1095581054688
1672829358576322000,12.674322021484375,-460.2317199707031,760.1301879882812,757.3488159179688
1672829358586322200,12.684322265625,-457.8892517089844,760.2962646484375,756.7762451171875
1672829358596322000,12.694322021484375,-460.20245361328125,760.9423217773438,756.03271484375
1672829358606322200,12.704322265625,-459.90203857421875,758.24609375,756.6881713867188
1672829358616322000,12.714322021484374,-461.1434631347656,760.3036499023438,756.4797973632812
1672829358626322200,12.724322265625,-460.1820068359375,757.952392578125,755.404296875
1672829358636322000,12.734322021484376,-460.84869384765625,759.5010986328125,757.2223510742188
1672829358646322200,12.744322265625,-461.012939453125,758.5457763671875,757.6809692382812
1672829358656322000,12.754322021484375,-461.2861328125,758.2569580078125,756.10986328125
1672829358666322200,12.764322265625,-461.27703857421875,759.0543823242188,755.6553955078125
1672829358676322000,12.774322021484375,-459.1112365722656,757.4652099609375,756.1395263671875
1672829358686322200,12.784322265625,-462.0837707519531,756.34423828125,757.1694946289062
1672829358696322000,12.794322021484374,-460.37786865234375,755.3923950195312,757.3462524414062
1672829358706322200,12.804322265625,-462.38519287109375,757.1419067382812,756.714111328125
1672829358716322000,12.814322021484376,-460.81884765625,754.3038940429688,756.3726196289062
1672829358726322200,12.824322265625,-461.3069763183594,756.0277099609375,757.1810913085938
1672829358736322000,12.834322021484375,-463.3070373535156,757.3079833984375,756.2760009765625
1672829358746322200,12.844322265625,-463.1612243652344,756.8264770507812,756.7213745117188
1672829358756322000,12.854322021484375,-463.35272216796875,756.1675415039062,758.319580078125
1672829358766322200,12.864322265625,-463.8013916015625,755.8641967773438,757.6095581054688
1672829358776322000,12.874322021484375,-464.1463317871094,756.471923828125,759.0260009765625
1672829358786322200,12.884322265625,-463.5356750488281,756.7801513671875,759.4491577148438
1672829358796322000,12.894322021484374,-463.35272216796875,756.1675415039062,758.319580078125
1672829358806322200,12.904322265625,-463.22412109375,755.9898071289062,759.4735717773438
1672829358816322000,12.914322021484375,-462.8896484375,755.690673828125,758.4786987304688
1672829358826322200,12.924322265625,-462.8904113769531,756.32275390625,758.4598388671875
1672829358836322000,12.934322021484375,-460.8722229003906,753.9486083984375,758.6797485351562
1672829358846322200,12.944322265625,-463.1925354003906,754.90576171875,758.2140502929688
1672829358856322000,12.954322021484375,-460.889404296875,754.2523803710938,759.388427734375
1672829358866322200,12.964322265625,-460.736328125,753.3016967773438,759.560791015625
1672829358876322000,12.974322021484374,-464.14422607421875,754.7338256835938,759.0778198242188
1672829358886322200,12.984322265625,-462.08740234375,753.8111572265625,757.5321655273438
1672829358896322000,12.994322021484376,-463.8380432128906,752.8325805664062,759.4224853515625
1672829358906322200,13.004322265625,-465.9693908691406,750.9674682617188,757.7496337890625
1672829358916322000,13.014322021484375,-464.76483154296875,751.5716552734375,759.31396484375
1672829358926322200,13.024322265625,-463.34503173828125,749.8471069335938,758.5081787109375
1672829358936322000,13.034322021484375,-465.8163146972656,750.016845703125,757.9219970703125
1672829358946322200,13.044322265625,-463.2016296386719,748.5730590820312,759.1207275390625
1672829358956322000,13.054322021484374,-465.807861328125,748.599609375,757.6771850585938
1672829358966322200,13.064322265625,-465.35650634765625,746.6908569335938,758.4530639648438
1672829358976322000,13.074322021484376,-465.81036376953125,745.1184692382812,758.068115234375
1672829358986322200,13.084322265625,-465.8213806152344,745.9011840820312,758.475341796875
1672829358996322000,13.094322021484375,-465.8095703125,744.4865112304688,758.0869750976562
1672829359006322200,13.104322265625,-464.1060791015625,742.7421264648438,758.430908203125
1672829359016322000,13.114322021484375,-465.4750061035156,741.3407592773438,757.3204956054688
1672829359026322200,13.124322265625,-465.5072326660156,740.2101440429688,758.7896118164062
1672829359036322000,13.134322021484374,-463.8746337890625,738.2112426757812,755.55224609375
1672829359046322200,13.144322265625,-465.4353332519531,739.155517578125,755.8067626953125
1672829359056322000,13.154322021484376,-462.3326721191406,738.834716796875,755.9686279296875
1672829359066322200,13.164322265625,-463.6907653808594,736.8086547851562,754.4462280273438
1672829359076322000,13.174322021484375,-464.6491394042969,736.6317749023438,755.5972290039062
1672829359086322200,13.184322265625,-463.8665771484375,737.110107421875,755.2980346679688
1672829359096322000,13.194322021484375,-460.7305908203125,734.2831420898438,754.2428588867188
